subnum,block,type,correctresponse,trial,choice,x,y,stim,present,response,responded,corr,starttime,rt
Control_ts_19B,0,practice,P,1,3,540,460,P,1,<rshift>,1,1,25195,537
Control_ts_19B,0,practice,P,2,3,540,460,P,1,<rshift>,1,1,26197,563
Control_ts_19B,0,practice,P,3,3,540,460,P,1,<rshift>,1,1,27198,354
Control_ts_19B,0,practice,P,4,3,540,460,P,1,<rshift>,1,1,28204,425
Control_ts_19B,0,practice,P,5,2,740,260,P,1,<rshift>,1,1,29199,838
Control_ts_19B,0,practice,P,6,1,540,260,R,0,NONE,0,1,30194,952
Control_ts_19B,0,practice,P,7,1,540,260,P,1,<rshift>,1,1,31198,470
Control_ts_19B,0,practice,P,8,2,740,260,R,0,NONE,0,1,32198,951
Control_ts_19B,0,practice,P,9,3,540,460,P,1,<rshift>,1,1,33204,459
Control_ts_19B,0,practice,P,10,1,540,260,P,1,<rshift>,1,1,34202,445
Control_ts_19B,1,test,P,1,1,540,260,P,1,<rshift>,1,1,44588,424
Control_ts_19B,1,test,P,2,1,540,260,P,1,<rshift>,1,1,45599,323
Control_ts_19B,1,test,P,3,1,540,260,P,1,<rshift>,1,1,46600,286
Control_ts_19B,1,test,P,4,1,540,260,R,0,NONE,0,1,47595,953
Control_ts_19B,1,test,P,5,4,740,460,P,1,<rshift>,1,1,48591,430
Control_ts_19B,1,test,P,6,2,740,260,P,1,<rshift>,1,1,49592,395
Control_ts_19B,1,test,P,7,4,740,460,P,1,<rshift>,1,1,50594,393
Control_ts_19B,1,test,P,8,1,540,260,P,1,<rshift>,1,1,51600,306
Control_ts_19B,1,test,P,9,3,540,460,R,0,<rshift>,1,0,52594,398
Control_ts_19B,1,test,P,10,4,740,460,R,0,NONE,0,1,53591,952
Control_ts_19B,1,test,P,11,2,740,260,P,1,<rshift>,1,1,54595,365
Control_ts_19B,1,test,P,12,4,740,460,P,1,<rshift>,1,1,55592,476
Control_ts_19B,1,test,P,13,4,740,460,P,1,<rshift>,1,1,56594,351
Control_ts_19B,1,test,P,14,1,540,260,P,1,<rshift>,1,1,57593,402
Control_ts_19B,1,test,P,15,2,740,260,P,1,<rshift>,1,1,58594,476
Control_ts_19B,1,test,P,16,3,540,460,P,1,<rshift>,1,1,59600,344
Control_ts_19B,1,test,P,17,4,740,460,P,1,<rshift>,1,1,60594,633
Control_ts_19B,1,test,P,18,2,740,260,P,1,<rshift>,1,1,61593,376
Control_ts_19B,1,test,P,19,2,740,260,R,0,<rshift>,1,0,62599,316
Control_ts_19B,1,test,P,20,1,540,260,R,0,NONE,0,1,63599,952
Control_ts_19B,1,test,P,21,1,540,260,P,1,<rshift>,1,1,64594,534
Control_ts_19B,1,test,P,22,2,740,260,P,1,<rshift>,1,1,65600,430
Control_ts_19B,1,test,P,23,3,540,460,P,1,<rshift>,1,1,66591,517
Control_ts_19B,1,test,P,24,4,740,460,P,1,<rshift>,1,1,67594,354
Control_ts_19B,1,test,P,25,3,540,460,P,1,<rshift>,1,1,68596,368
Control_ts_19B,1,test,P,26,4,740,460,P,1,<rshift>,1,1,69592,369
Control_ts_19B,1,test,P,27,3,540,460,P,1,<rshift>,1,1,70593,382
Control_ts_19B,1,test,P,28,1,540,260,P,1,<rshift>,1,1,71598,421
Control_ts_19B,1,test,P,29,3,540,460,P,1,<rshift>,1,1,72593,333
Control_ts_19B,1,test,P,30,1,540,260,P,1,<rshift>,1,1,73593,334
Control_ts_19B,1,test,P,31,2,740,260,P,1,<rshift>,1,1,74597,499
Control_ts_19B,1,test,P,32,2,740,260,P,1,<rshift>,1,1,75590,480
Control_ts_19B,1,test,P,33,1,540,260,P,1,<rshift>,1,1,76597,319
Control_ts_19B,1,test,P,34,3,540,460,P,1,<rshift>,1,1,77592,340
Control_ts_19B,1,test,P,35,4,740,460,P,1,<rshift>,1,1,78590,332
Control_ts_19B,1,test,P,36,3,540,460,P,1,<rshift>,1,1,79594,326
Control_ts_19B,1,test,P,37,1,540,260,P,1,<rshift>,1,1,80593,339
Control_ts_19B,1,test,P,38,1,540,260,P,1,<rshift>,1,1,81595,385
Control_ts_19B,1,test,P,39,2,740,260,P,1,<rshift>,1,1,82591,340
Control_ts_19B,1,test,P,40,3,540,460,P,1,<rshift>,1,1,83597,339
Control_ts_19B,1,test,P,41,1,540,260,P,1,<rshift>,1,1,84594,315
Control_ts_19B,1,test,P,42,4,740,460,P,1,<rshift>,1,1,85601,443
Control_ts_19B,1,test,P,43,3,540,460,P,1,<rshift>,1,1,86593,332
Control_ts_19B,1,test,P,44,4,740,460,P,1,<rshift>,1,1,87598,327
Control_ts_19B,1,test,P,45,1,540,260,P,1,<rshift>,1,1,88595,355
Control_ts_19B,1,test,P,46,1,540,260,P,1,<rshift>,1,1,89598,326
Control_ts_19B,1,test,P,47,1,540,260,P,1,<rshift>,1,1,90593,296
Control_ts_19B,1,test,P,48,1,540,260,P,1,<rshift>,1,1,91594,282
Control_ts_19B,1,test,P,49,3,540,460,P,1,<rshift>,1,1,92594,382
Control_ts_19B,1,test,P,50,1,540,260,P,1,<rshift>,1,1,93596,317
Control_ts_19B,1,test,P,51,4,740,460,P,1,<rshift>,1,1,94592,390
Control_ts_19B,1,test,P,52,3,540,460,P,1,<rshift>,1,1,95595,469
Control_ts_19B,1,test,P,53,3,540,460,R,0,NONE,0,1,96594,952
Control_ts_19B,1,test,P,54,1,540,260,P,1,<rshift>,1,1,97600,351
Control_ts_19B,1,test,P,55,2,740,260,P,1,<rshift>,1,1,98595,468
Control_ts_19B,1,test,P,56,2,740,260,R,0,<rshift>,1,0,99603,402
Control_ts_19B,1,test,P,57,1,540,260,P,1,<rshift>,1,1,100597,417
Control_ts_19B,1,test,P,58,1,540,260,P,1,<rshift>,1,1,101600,367
Control_ts_19B,1,test,P,59,3,540,460,P,1,<rshift>,1,1,102595,458
Control_ts_19B,1,test,P,60,2,740,260,R,0,NONE,0,1,103594,952
Control_ts_19B,1,test,P,61,2,740,260,P,1,<rshift>,1,1,104599,375
Control_ts_19B,1,test,P,62,3,540,460,P,1,<rshift>,1,1,105592,340
Control_ts_19B,1,test,P,63,3,540,460,P,1,<rshift>,1,1,106593,376
Control_ts_19B,1,test,P,64,1,540,260,R,0,<rshift>,1,0,107598,321
Control_ts_19B,1,test,P,65,1,540,260,R,0,NONE,0,1,108596,952
Control_ts_19B,1,test,P,66,4,740,460,R,0,NONE,0,1,109595,952
Control_ts_19B,1,test,P,67,2,740,260,P,1,<rshift>,1,1,110597,470
Control_ts_19B,1,test,P,68,3,540,460,P,1,<rshift>,1,1,111599,481
Control_ts_19B,1,test,P,69,3,540,460,P,1,<rshift>,1,1,112594,454
Control_ts_19B,1,test,P,70,3,540,460,P,1,<rshift>,1,1,113603,521
Control_ts_19B,1,test,P,71,4,740,460,P,1,<rshift>,1,1,114593,444
Control_ts_19B,1,test,P,72,3,540,460,P,1,<rshift>,1,1,115595,382
Control_ts_19B,1,test,P,73,1,540,260,P,1,<rshift>,1,1,116594,337
Control_ts_19B,1,test,P,74,1,540,260,R,0,NONE,0,1,117594,953
Control_ts_19B,1,test,P,75,1,540,260,P,1,<rshift>,1,1,118594,553
Control_ts_19B,1,test,P,76,3,540,460,P,1,<rshift>,1,1,119594,387
Control_ts_19B,1,test,P,77,4,740,460,P,1,<rshift>,1,1,120600,348
Control_ts_19B,1,test,P,78,4,740,460,P,1,<rshift>,1,1,121590,391
Control_ts_19B,1,test,P,79,2,740,260,P,1,<rshift>,1,1,122591,361
Control_ts_19B,1,test,P,80,3,540,460,R,0,NONE,0,1,123601,953
Control_ts_19B,1,test,P,81,4,740,460,P,1,<rshift>,1,1,124596,413
Control_ts_19B,1,test,P,82,2,740,260,P,1,<rshift>,1,1,125590,366
Control_ts_19B,1,test,P,83,1,540,260,P,1,<rshift>,1,1,126598,447
Control_ts_19B,1,test,P,84,2,740,260,P,1,<rshift>,1,1,127598,419
Control_ts_19B,1,test,P,85,2,740,260,P,1,<rshift>,1,1,128602,362
Control_ts_19B,1,test,P,86,4,740,460,P,1,<rshift>,1,1,129597,370
Control_ts_19B,1,test,P,87,1,540,260,P,1,<rshift>,1,1,130594,488
Control_ts_19B,1,test,P,88,3,540,460,R,0,NONE,0,1,131594,953
Control_ts_19B,1,test,P,89,4,740,460,P,1,<rshift>,1,1,132594,308
Control_ts_19B,1,test,P,90,4,740,460,P,1,<rshift>,1,1,133600,369
Control_ts_19B,1,test,P,91,2,740,260,P,1,<rshift>,1,1,134592,358
Control_ts_19B,1,test,P,92,2,740,260,P,1,<rshift>,1,1,135594,378
Control_ts_19B,1,test,P,93,3,540,460,P,1,<rshift>,1,1,136595,392
Control_ts_19B,1,test,P,94,3,540,460,P,1,<rshift>,1,1,137596,550
Control_ts_19B,1,test,P,95,3,540,460,P,1,<rshift>,1,1,138591,365
Control_ts_19B,1,test,P,96,1,540,260,P,1,<rshift>,1,1,139594,397
Control_ts_19B,1,test,P,97,3,540,460,P,1,<rshift>,1,1,140592,360
Control_ts_19B,1,test,P,98,3,540,460,R,0,NONE,0,1,141594,952
Control_ts_19B,1,test,P,99,4,740,460,P,1,<rshift>,1,1,142592,406
Control_ts_19B,1,test,P,100,4,740,460,R,0,NONE,0,1,143599,953
Control_ts_19B,1,test,P,101,4,740,460,R,0,NONE,0,1,144599,952
Control_ts_19B,1,test,P,102,1,540,260,P,1,<rshift>,1,1,145598,481
Control_ts_19B,1,test,P,103,2,740,260,P,1,<rshift>,1,1,146592,307
Control_ts_19B,1,test,P,104,2,740,260,P,1,<rshift>,1,1,147600,403
Control_ts_19B,1,test,P,105,1,540,260,P,1,<rshift>,1,1,148592,328
Control_ts_19B,1,test,P,106,2,740,260,P,1,<rshift>,1,1,149598,471
Control_ts_19B,1,test,P,107,1,540,260,P,1,<rshift>,1,1,150591,355
Control_ts_19B,1,test,P,108,2,740,260,P,1,<rshift>,1,1,151602,432
Control_ts_19B,1,test,P,109,4,740,460,P,1,<rshift>,1,1,152591,378
Control_ts_19B,1,test,P,110,4,740,460,P,1,<rshift>,1,1,153601,348
Control_ts_19B,1,test,P,111,2,740,260,P,1,<rshift>,1,1,154599,414
Control_ts_19B,1,test,P,112,2,740,260,P,1,<rshift>,1,1,155592,320
Control_ts_19B,1,test,P,113,1,540,260,P,1,<rshift>,1,1,156597,330
Control_ts_19B,1,test,P,114,2,740,260,P,1,<rshift>,1,1,157597,297
Control_ts_19B,1,test,P,115,1,540,260,P,1,<rshift>,1,1,158596,323
Control_ts_19B,1,test,P,116,3,540,460,P,1,NONE,0,0,159598,952
Control_ts_19B,1,test,P,117,4,740,460,P,1,<rshift>,1,1,160592,367
Control_ts_19B,1,test,P,118,3,540,460,P,1,<rshift>,1,1,161597,316
Control_ts_19B,1,test,P,119,1,540,260,P,1,<rshift>,1,1,162597,315
Control_ts_19B,1,test,P,120,1,540,260,P,1,<rshift>,1,1,163593,356
Control_ts_19B,1,test,P,121,4,740,460,R,0,NONE,0,1,164591,952
Control_ts_19B,1,test,P,122,2,740,260,P,1,<rshift>,1,1,165595,427
Control_ts_19B,1,test,P,123,1,540,260,R,0,<rshift>,1,0,166592,335
Control_ts_19B,1,test,P,124,1,540,260,P,1,<rshift>,1,1,167597,481
Control_ts_19B,1,test,P,125,2,740,260,R,0,<rshift>,1,0,168591,440
Control_ts_19B,1,test,P,126,1,540,260,P,1,<rshift>,1,1,169602,698
Control_ts_19B,1,test,P,127,1,540,260,P,1,<rshift>,1,1,170594,468
Control_ts_19B,1,test,P,128,4,740,460,R,0,NONE,0,1,171594,953
Control_ts_19B,1,test,P,129,4,740,460,P,1,<rshift>,1,1,172594,433
Control_ts_19B,1,test,P,130,2,740,260,P,1,<rshift>,1,1,173598,466
Control_ts_19B,1,test,P,131,2,740,260,P,1,<rshift>,1,1,174592,370
Control_ts_19B,1,test,P,132,2,740,260,P,1,<rshift>,1,1,175592,349
Control_ts_19B,1,test,P,133,2,740,260,P,1,<rshift>,1,1,176598,408
Control_ts_19B,1,test,P,134,3,540,460,R,0,NONE,0,1,177599,953
Control_ts_19B,1,test,P,135,1,540,260,P,1,<rshift>,1,1,178595,375
Control_ts_19B,1,test,P,136,3,540,460,P,1,<rshift>,1,1,179592,523
Control_ts_19B,1,test,P,137,2,740,260,P,1,<rshift>,1,1,180594,387
Control_ts_19B,1,test,P,138,1,540,260,P,1,<rshift>,1,1,181597,489
Control_ts_19B,1,test,P,139,3,540,460,P,1,<rshift>,1,1,182598,318
Control_ts_19B,1,test,P,140,4,740,460,R,0,NONE,0,1,183594,953
Control_ts_19B,1,test,P,141,3,540,460,P,1,<rshift>,1,1,184592,365
Control_ts_19B,1,test,P,142,2,740,260,P,1,<rshift>,1,1,185599,361
Control_ts_19B,1,test,P,143,1,540,260,P,1,<rshift>,1,1,186595,332
Control_ts_19B,1,test,P,144,1,540,260,R,0,NONE,0,1,187594,954
Control_ts_19B,1,test,P,145,1,540,260,R,0,NONE,0,1,188599,953
Control_ts_19B,1,test,P,146,1,540,260,R,0,<rshift>,1,0,189591,300
Control_ts_19B,1,test,P,147,2,740,260,P,1,<rshift>,1,1,190593,390
Control_ts_19B,1,test,P,148,1,540,260,P,1,<rshift>,1,1,191594,441
Control_ts_19B,1,test,P,149,3,540,460,R,0,NONE,0,1,192599,952
Control_ts_19B,1,test,P,150,2,740,260,P,1,<rshift>,1,1,193593,348
Control_ts_19B,1,test,P,151,1,540,260,P,1,<rshift>,1,1,194600,376
Control_ts_19B,1,test,P,152,3,540,460,P,1,<rshift>,1,1,195595,371
Control_ts_19B,1,test,P,153,1,540,260,P,1,<rshift>,1,1,196592,351
Control_ts_19B,1,test,P,154,2,740,260,R,0,<rshift>,1,0,197598,328
Control_ts_19B,1,test,P,155,3,540,460,P,1,<rshift>,1,1,198590,499
Control_ts_19B,1,test,P,156,4,740,460,R,0,NONE,0,1,199591,953
Control_ts_19B,1,test,P,157,2,740,260,P,1,<rshift>,1,1,200595,468
Control_ts_19B,1,test,P,158,1,540,260,P,1,<rshift>,1,1,201598,377
Control_ts_19B,1,test,P,159,2,740,260,P,1,<rshift>,1,1,202594,448
Control_ts_19B,1,test,P,160,4,740,460,P,1,<rshift>,1,1,203594,481
Control_ts_19B,1,test,P,161,1,540,260,P,1,<rshift>,1,1,204599,414
Control_ts_19B,1,test,P,162,3,540,460,P,1,<rshift>,1,1,205594,438
Control_ts_19B,1,test,P,163,3,540,460,R,0,NONE,0,1,206601,953
Control_ts_19B,1,test,P,164,1,540,260,P,1,<rshift>,1,1,207594,352
Control_ts_19B,1,test,P,165,4,740,460,P,1,<rshift>,1,1,208596,528
Control_ts_19B,1,test,P,166,4,740,460,R,0,NONE,0,1,209593,953
Control_ts_19B,1,test,P,167,1,540,260,P,1,<rshift>,1,1,210595,379
Control_ts_19B,1,test,P,168,2,740,260,P,1,<rshift>,1,1,211597,398
Control_ts_19B,1,test,P,169,1,540,260,P,1,<rshift>,1,1,212594,363
Control_ts_19B,1,test,P,170,4,740,460,P,1,<rshift>,1,1,213596,496
Control_ts_19B,1,test,P,171,2,740,260,P,1,<rshift>,1,1,214594,360
Control_ts_19B,1,test,P,172,1,540,260,P,1,<rshift>,1,1,215595,369
Control_ts_19B,1,test,P,173,4,740,460,P,1,<rshift>,1,1,216595,355
Control_ts_19B,1,test,P,174,1,540,260,P,1,<rshift>,1,1,217594,310
Control_ts_19B,1,test,P,175,2,740,260,R,0,NONE,0,1,218595,953
Control_ts_19B,1,test,P,176,4,740,460,P,1,<rshift>,1,1,219597,386
Control_ts_19B,1,test,P,177,4,740,460,P,1,<rshift>,1,1,220592,417
Control_ts_19B,1,test,P,178,2,740,260,P,1,<rshift>,1,1,221598,380
Control_ts_19B,1,test,P,179,1,540,260,R,0,NONE,0,1,222593,953
Control_ts_19B,1,test,P,180,4,740,460,P,1,<rshift>,1,1,223596,523
Control_ts_19B,1,test,P,181,1,540,260,P,1,<rshift>,1,1,224595,315
Control_ts_19B,1,test,P,182,4,740,460,R,0,NONE,0,1,225594,954
Control_ts_19B,1,test,P,183,2,740,260,P,1,<rshift>,1,1,226594,288
Control_ts_19B,1,test,P,184,2,740,260,P,1,<rshift>,1,1,227593,401
Control_ts_19B,1,test,P,185,3,540,460,P,1,<rshift>,1,1,228592,395
Control_ts_19B,1,test,P,186,3,540,460,R,0,NONE,0,1,229598,953
Control_ts_19B,1,test,P,187,2,740,260,P,1,<rshift>,1,1,230596,275
Control_ts_19B,1,test,P,188,1,540,260,P,1,<rshift>,1,1,231599,349
Control_ts_19B,1,test,P,189,1,540,260,P,1,<rshift>,1,1,232596,459
Control_ts_19B,1,test,P,190,3,540,460,R,0,NONE,0,1,233596,953
Control_ts_19B,1,test,P,191,1,540,260,P,1,<rshift>,1,1,234593,302
Control_ts_19B,1,test,P,192,1,540,260,P,1,<rshift>,1,1,235593,473
Control_ts_19B,1,test,P,193,4,740,460,P,1,<rshift>,1,1,236593,326
Control_ts_19B,1,test,P,194,3,540,460,R,0,NONE,0,1,237593,953
Control_ts_19B,1,test,P,195,3,540,460,P,1,<rshift>,1,1,238600,544
Control_ts_19B,1,test,P,196,2,740,260,R,0,NONE,0,1,239594,954
Control_ts_19B,1,test,P,197,1,540,260,P,1,<rshift>,1,1,240594,480
Control_ts_19B,1,test,P,198,2,740,260,R,0,NONE,0,1,241595,953
Control_ts_19B,1,test,P,199,1,540,260,P,1,<rshift>,1,1,242592,319
Control_ts_19B,1,test,P,200,4,740,460,P,1,<rshift>,1,1,243594,524
Control_ts_19B,1,test,P,201,4,740,460,R,0,NONE,0,1,244595,953
Control_ts_19B,1,test,P,202,4,740,460,R,0,NONE,0,1,245598,952
Control_ts_19B,1,test,P,203,3,540,460,P,1,<rshift>,1,1,246597,524
Control_ts_19B,1,test,P,204,2,740,260,P,1,<rshift>,1,1,247596,341
Control_ts_19B,1,test,P,205,3,540,460,P,1,<rshift>,1,1,248594,402
Control_ts_19B,1,test,P,206,3,540,460,R,0,<rshift>,1,0,249598,357
Control_ts_19B,1,test,P,207,1,540,260,P,1,<rshift>,1,1,250593,417
Control_ts_19B,1,test,P,208,4,740,460,P,1,<rshift>,1,1,251595,501
Control_ts_19B,1,test,P,209,2,740,260,P,1,<rshift>,1,1,252599,368
Control_ts_19B,1,test,P,210,3,540,460,P,1,<rshift>,1,1,253596,550
Control_ts_19B,1,test,P,211,1,540,260,R,0,NONE,0,1,254600,952
Control_ts_19B,1,test,P,212,1,540,260,P,1,<rshift>,1,1,255597,363
Control_ts_19B,1,test,P,213,4,740,460,R,0,NONE,0,1,256597,953
Control_ts_19B,1,test,P,214,2,740,260,P,1,<rshift>,1,1,257597,337
Control_ts_19B,1,test,P,215,4,740,460,P,1,<rshift>,1,1,258592,416
Control_ts_19B,1,test,P,216,4,740,460,P,1,<rshift>,1,1,259594,350
Control_ts_19B,1,test,P,217,2,740,260,P,1,<rshift>,1,1,260592,298
Control_ts_19B,1,test,P,218,4,740,460,P,1,<rshift>,1,1,261599,298
Control_ts_19B,1,test,P,219,2,740,260,P,1,<rshift>,1,1,262598,308
Control_ts_19B,1,test,P,220,3,540,460,P,1,<rshift>,1,1,263598,332
Control_ts_19B,1,test,P,221,2,740,260,P,1,<rshift>,1,1,264594,325
Control_ts_19B,1,test,P,222,3,540,460,P,1,<rshift>,1,1,265598,416
Control_ts_19B,1,test,P,223,3,540,460,P,1,<rshift>,1,1,266593,349
Control_ts_19B,1,test,P,224,1,540,260,P,1,<rshift>,1,1,267596,320
Control_ts_19B,1,test,P,225,3,540,460,R,0,NONE,0,1,268593,953
Control_ts_19B,1,test,P,226,2,740,260,P,1,<rshift>,1,1,269592,300
Control_ts_19B,1,test,P,227,3,540,460,P,1,<rshift>,1,1,270593,347
Control_ts_19B,1,test,P,228,1,540,260,R,0,<rshift>,1,0,271595,332
Control_ts_19B,1,test,P,229,3,540,460,P,1,<rshift>,1,1,272594,453
Control_ts_19B,1,test,P,230,3,540,460,R,0,NONE,0,1,273594,952
Control_ts_19B,1,test,P,231,2,740,260,R,0,<rshift>,1,0,274593,370
Control_ts_19B,1,test,P,232,4,740,460,R,0,NONE,0,1,275598,952
Control_ts_19B,1,test,P,233,1,540,260,P,1,<rshift>,1,1,276598,386
Control_ts_19B,1,test,P,234,1,540,260,P,1,<rshift>,1,1,277595,480
Control_ts_19B,1,test,P,235,1,540,260,P,1,<rshift>,1,1,278593,343
Control_ts_19B,1,test,P,236,1,540,260,P,1,<rshift>,1,1,279597,303
Control_ts_19B,1,test,P,237,4,740,460,R,0,NONE,0,1,280599,953
Control_ts_19B,1,test,P,238,3,540,460,P,1,<rshift>,1,1,281598,534
Control_ts_19B,1,test,P,239,4,740,460,R,0,NONE,0,1,282596,952
Control_ts_19B,1,test,P,240,3,540,460,P,1,<rshift>,1,1,283598,343
Control_ts_19B,1,test,P,241,3,540,460,R,0,NONE,0,1,284597,952
Control_ts_19B,1,test,P,242,2,740,260,P,1,<rshift>,1,1,285591,344
Control_ts_19B,1,test,P,243,4,740,460,P,1,<rshift>,1,1,286597,322
Control_ts_19B,1,test,P,244,3,540,460,P,1,<rshift>,1,1,287593,382
Control_ts_19B,1,test,P,245,3,540,460,P,1,<rshift>,1,1,288592,328
Control_ts_19B,1,test,P,246,4,740,460,P,1,<rshift>,1,1,289595,430
Control_ts_19B,1,test,P,247,2,740,260,P,1,<rshift>,1,1,290596,405
Control_ts_19B,1,test,P,248,4,740,460,P,1,<rshift>,1,1,291593,473
Control_ts_19B,1,test,P,249,2,740,260,P,1,<rshift>,1,1,292592,431
Control_ts_19B,1,test,P,250,2,740,260,P,1,<rshift>,1,1,293596,420
Control_ts_19B,1,test,P,251,4,740,460,P,1,<rshift>,1,1,294597,453
Control_ts_19B,1,test,P,252,3,540,460,P,1,<rshift>,1,1,295596,467
Control_ts_19B,1,test,P,253,1,540,260,P,1,<rshift>,1,1,296594,434
Control_ts_19B,1,test,P,254,4,740,460,P,1,<rshift>,1,1,297599,463
Control_ts_19B,1,test,P,255,4,740,460,P,1,<rshift>,1,1,298596,451
Control_ts_19B,1,test,P,256,2,740,260,R,0,NONE,0,1,299597,952
Control_ts_19B,1,test,P,257,4,740,460,P,1,<rshift>,1,1,300594,466
Control_ts_19B,1,test,P,258,3,540,460,P,1,<rshift>,1,1,301592,456
Control_ts_19B,1,test,P,259,3,540,460,R,0,NONE,0,1,302600,952
Control_ts_19B,1,test,P,260,4,740,460,P,1,<rshift>,1,1,303590,425
Control_ts_19B,1,test,P,261,1,540,260,P,1,<rshift>,1,1,304593,413
Control_ts_19B,1,test,P,262,4,740,460,P,1,<rshift>,1,1,305599,449
Control_ts_19B,1,test,P,263,4,740,460,P,1,<rshift>,1,1,306597,438
Control_ts_19B,1,test,P,264,2,740,260,P,1,<rshift>,1,1,307596,407
Control_ts_19B,1,test,P,265,2,740,260,R,0,NONE,0,1,308591,953
Control_ts_19B,1,test,P,266,2,740,260,P,1,<rshift>,1,1,309593,379
Control_ts_19B,1,test,P,267,1,540,260,P,1,<rshift>,1,1,310596,361
Control_ts_19B,1,test,P,268,1,540,260,R,0,NONE,0,1,311593,951
Control_ts_19B,1,test,P,269,3,540,460,P,1,<rshift>,1,1,312595,520
Control_ts_19B,1,test,P,270,4,740,460,P,1,<rshift>,1,1,313599,400
Control_ts_19B,1,test,P,271,4,740,460,P,1,<rshift>,1,1,314600,422
Control_ts_19B,1,test,P,272,3,540,460,P,1,<rshift>,1,1,315597,419
Control_ts_19B,1,test,P,273,3,540,460,R,0,NONE,0,1,316591,953
Control_ts_19B,1,test,P,274,4,740,460,R,0,<rshift>,1,0,317593,312
Control_ts_19B,1,test,P,275,2,740,260,P,1,<rshift>,1,1,318591,439
Control_ts_19B,1,test,P,276,2,740,260,P,1,<rshift>,1,1,319600,518
Control_ts_19B,1,test,P,277,2,740,260,P,1,<rshift>,1,1,320599,363
Control_ts_19B,1,test,P,278,2,740,260,P,1,<rshift>,1,1,321596,319
Control_ts_19B,1,test,P,279,1,540,260,P,1,<rshift>,1,1,322593,616
Control_ts_19B,1,test,P,280,3,540,460,P,1,<rshift>,1,1,323597,433
Control_ts_19B,1,test,P,281,3,540,460,R,0,NONE,0,1,324594,952
Control_ts_19B,1,test,P,282,1,540,260,P,1,<rshift>,1,1,325595,408
Control_ts_19B,1,test,P,283,4,740,460,P,1,<rshift>,1,1,326602,419
Control_ts_19B,1,test,P,284,3,540,460,P,1,<rshift>,1,1,327591,608
Control_ts_19B,1,test,P,285,2,740,260,P,1,<rshift>,1,1,328595,417
Control_ts_19B,1,test,P,286,3,540,460,P,1,<rshift>,1,1,329596,418
Control_ts_19B,1,test,P,287,3,540,460,P,1,<rshift>,1,1,330597,393
Control_ts_19B,1,test,P,288,4,740,460,P,1,<rshift>,1,1,331597,378
Control_ts_19B,1,test,P,289,1,540,260,P,1,<rshift>,1,1,332595,360
Control_ts_19B,1,test,P,290,4,740,460,P,1,<rshift>,1,1,333594,355
Control_ts_19B,1,test,P,291,2,740,260,P,1,<rshift>,1,1,334597,369
Control_ts_19B,1,test,P,292,1,540,260,P,1,<rshift>,1,1,335595,452
Control_ts_19B,1,test,P,293,3,540,460,P,1,<rshift>,1,1,336594,381
Control_ts_19B,1,test,P,294,1,540,260,P,1,<rshift>,1,1,337595,443
Control_ts_19B,1,test,P,295,2,740,260,P,1,<rshift>,1,1,338595,396
Control_ts_19B,1,test,P,296,3,540,460,R,0,NONE,0,1,339592,953
Control_ts_19B,1,test,P,297,1,540,260,P,1,<rshift>,1,1,340596,336
Control_ts_19B,1,test,P,298,1,540,260,P,1,<rshift>,1,1,341597,418
Control_ts_19B,1,test,P,299,2,740,260,P,1,<rshift>,1,1,342594,473
Control_ts_19B,1,test,P,300,3,540,460,P,1,<rshift>,1,1,343597,395
Control_ts_19B,2,practice,R,1,2,740,260,R,1,<rshift>,1,1,359606,932
Control_ts_19B,2,practice,R,2,3,540,460,P,0,NONE,0,1,360608,952
Control_ts_19B,2,practice,R,3,2,740,260,R,1,<rshift>,1,1,361609,545
Control_ts_19B,2,practice,R,4,3,540,460,R,1,<rshift>,1,1,362612,316
Control_ts_19B,2,practice,R,5,3,540,460,R,1,<rshift>,1,1,363611,347
Control_ts_19B,2,practice,R,6,2,740,260,R,1,<rshift>,1,1,364612,336
Control_ts_19B,2,practice,R,7,4,740,460,R,1,<rshift>,1,1,365614,366
Control_ts_19B,2,practice,R,8,2,740,260,R,1,<rshift>,1,1,366613,416
Control_ts_19B,2,practice,R,9,4,740,460,R,1,<rshift>,1,1,367614,474
Control_ts_19B,2,practice,R,10,1,540,260,P,0,NONE,0,1,368613,952
Control_ts_19B,3,test,R,1,2,740,260,R,1,<rshift>,1,1,378786,468
Control_ts_19B,3,test,R,2,3,540,460,R,1,<rshift>,1,1,379789,405
Control_ts_19B,3,test,R,3,3,540,460,R,1,<rshift>,1,1,380792,406
Control_ts_19B,3,test,R,4,2,740,260,R,1,<rshift>,1,1,381788,415
Control_ts_19B,3,test,R,5,2,740,260,R,1,<rshift>,1,1,382790,466
Control_ts_19B,3,test,R,6,2,740,260,P,0,NONE,0,1,383789,952
Control_ts_19B,3,test,R,7,2,740,260,P,0,<rshift>,1,0,384789,396
Control_ts_19B,3,test,R,8,3,540,460,P,0,<rshift>,1,0,385788,469
Control_ts_19B,3,test,R,9,2,740,260,R,1,<rshift>,1,1,386789,494
Control_ts_19B,3,test,R,10,3,540,460,R,1,<rshift>,1,1,387792,478
Control_ts_19B,3,test,R,11,2,740,260,R,1,<rshift>,1,1,388793,448
Control_ts_19B,3,test,R,12,2,740,260,P,0,NONE,0,1,389790,953
Control_ts_19B,3,test,R,13,2,740,260,R,1,<rshift>,1,1,390791,457
Control_ts_19B,3,test,R,14,2,740,260,P,0,<rshift>,1,0,391792,565
Control_ts_19B,3,test,R,15,3,540,460,R,1,<rshift>,1,1,392793,537
Control_ts_19B,3,test,R,16,4,740,460,P,0,<rshift>,1,0,393791,436
Control_ts_19B,3,test,R,17,2,740,260,R,1,<rshift>,1,1,394790,576
Control_ts_19B,3,test,R,18,3,540,460,R,1,<rshift>,1,1,395790,482
Control_ts_19B,3,test,R,19,1,540,260,R,1,<rshift>,1,1,396790,463
Control_ts_19B,3,test,R,20,4,740,460,P,0,NONE,0,1,397798,953
Control_ts_19B,3,test,R,21,4,740,460,R,1,<rshift>,1,1,398790,501
Control_ts_19B,3,test,R,22,4,740,460,R,1,<rshift>,1,1,399789,477
Control_ts_19B,3,test,R,23,1,540,260,R,1,<rshift>,1,1,400795,406
Control_ts_19B,3,test,R,24,2,740,260,P,0,NONE,0,1,401790,952
Control_ts_19B,3,test,R,25,2,740,260,R,1,<rshift>,1,1,402791,534
Control_ts_19B,3,test,R,26,4,740,460,P,0,NONE,0,1,403791,953
Control_ts_19B,3,test,R,27,4,740,460,R,1,<rshift>,1,1,404790,346
Control_ts_19B,3,test,R,28,1,540,260,R,1,<rshift>,1,1,405788,520
Control_ts_19B,3,test,R,29,4,740,460,P,0,NONE,0,1,406789,951
Control_ts_19B,3,test,R,30,4,740,460,R,1,<rshift>,1,1,407790,345
Control_ts_19B,3,test,R,31,3,540,460,R,1,<rshift>,1,1,408791,415
Control_ts_19B,3,test,R,32,4,740,460,R,1,<rshift>,1,1,409796,394
Control_ts_19B,3,test,R,33,1,540,260,R,1,<rshift>,1,1,410792,392
Control_ts_19B,3,test,R,34,3,540,460,R,1,<rshift>,1,1,411790,370
Control_ts_19B,3,test,R,35,3,540,460,R,1,<rshift>,1,1,412797,399
Control_ts_19B,3,test,R,36,4,740,460,P,0,NONE,0,1,413793,953
Control_ts_19B,3,test,R,37,2,740,260,R,1,<rshift>,1,1,414790,314
Control_ts_19B,3,test,R,38,4,740,460,R,1,<rshift>,1,1,415792,475
Control_ts_19B,3,test,R,39,3,540,460,R,1,<rshift>,1,1,416799,366
Control_ts_19B,3,test,R,40,2,740,260,R,1,<rshift>,1,1,417793,430
Control_ts_19B,3,test,R,41,3,540,460,R,1,<rshift>,1,1,418792,357
Control_ts_19B,3,test,R,42,3,540,460,P,0,<rshift>,1,0,419792,449
Control_ts_19B,3,test,R,43,4,740,460,P,0,NONE,0,1,420790,954
Control_ts_19B,3,test,R,44,3,540,460,R,1,<rshift>,1,1,421793,407
Control_ts_19B,3,test,R,45,1,540,260,R,1,<rshift>,1,1,422791,525
Control_ts_19B,3,test,R,46,3,540,460,R,1,<rshift>,1,1,423791,414
Control_ts_19B,3,test,R,47,1,540,260,R,1,<rshift>,1,1,424791,532
Control_ts_19B,3,test,R,48,1,540,260,R,1,<rshift>,1,1,425789,534
Control_ts_19B,3,test,R,49,3,540,460,R,1,<rshift>,1,1,426790,421
Control_ts_19B,3,test,R,50,2,740,260,R,1,<rshift>,1,1,427794,367
Control_ts_19B,3,test,R,51,3,540,460,R,1,<rshift>,1,1,428791,416
Control_ts_19B,3,test,R,52,4,740,460,R,1,<rshift>,1,1,429794,446
Control_ts_19B,3,test,R,53,1,540,260,R,1,<rshift>,1,1,430789,468
Control_ts_19B,3,test,R,54,1,540,260,R,1,<rshift>,1,1,431791,419
Control_ts_19B,3,test,R,55,2,740,260,P,0,NONE,0,1,432791,953
Control_ts_19B,3,test,R,56,1,540,260,R,1,<rshift>,1,1,433796,424
Control_ts_19B,3,test,R,57,2,740,260,P,0,NONE,0,1,434793,951
Control_ts_19B,3,test,R,58,4,740,460,P,0,NONE,0,1,435791,952
Control_ts_19B,3,test,R,59,1,540,260,P,0,NONE,0,1,436795,953
Control_ts_19B,3,test,R,60,1,540,260,R,1,<rshift>,1,1,437794,433
Control_ts_19B,3,test,R,61,4,740,460,R,1,<rshift>,1,1,438791,360
Control_ts_19B,3,test,R,62,2,740,260,P,0,<rshift>,1,0,439792,380
Control_ts_19B,3,test,R,63,2,740,260,R,1,<rshift>,1,1,440795,438
Control_ts_19B,3,test,R,64,1,540,260,R,1,<rshift>,1,1,441790,346
Control_ts_19B,3,test,R,65,2,740,260,P,0,NONE,0,1,442789,952
Control_ts_19B,3,test,R,66,4,740,460,R,1,<rshift>,1,1,443791,370
Control_ts_19B,3,test,R,67,1,540,260,R,1,<rshift>,1,1,444795,407
Control_ts_19B,3,test,R,68,4,740,460,R,1,<rshift>,1,1,445796,378
Control_ts_19B,3,test,R,69,1,540,260,R,1,<rshift>,1,1,446793,382
Control_ts_19B,3,test,R,70,3,540,460,R,1,<rshift>,1,1,447794,368
Control_ts_19B,3,test,R,71,3,540,460,R,1,<rshift>,1,1,448791,440
Control_ts_19B,3,test,R,72,3,540,460,R,1,<rshift>,1,1,449788,415
Control_ts_19B,3,test,R,73,3,540,460,R,1,<rshift>,1,1,450795,432
Control_ts_19B,3,test,R,74,1,540,260,R,1,<rshift>,1,1,451789,410
Control_ts_19B,3,test,R,75,2,740,260,R,1,<rshift>,1,1,452789,430
Control_ts_19B,3,test,R,76,4,740,460,R,1,<rshift>,1,1,453790,454
Control_ts_19B,3,test,R,77,4,740,460,R,1,<rshift>,1,1,454794,403
Control_ts_19B,3,test,R,78,4,740,460,R,1,<rshift>,1,1,455794,398
Control_ts_19B,3,test,R,79,3,540,460,R,1,<rshift>,1,1,456790,603
Control_ts_19B,3,test,R,80,1,540,260,P,0,<rshift>,1,0,457793,339
Control_ts_19B,3,test,R,81,1,540,260,R,1,<rshift>,1,1,458793,344
Control_ts_19B,3,test,R,82,3,540,460,R,1,<rshift>,1,1,459791,387
Control_ts_19B,3,test,R,83,3,540,460,R,1,<rshift>,1,1,460793,415
Control_ts_19B,3,test,R,84,3,540,460,R,1,<rshift>,1,1,461792,432
Control_ts_19B,3,test,R,85,3,540,460,R,1,<rshift>,1,1,462791,538
Control_ts_19B,3,test,R,86,4,740,460,P,0,NONE,0,1,463793,953
Control_ts_19B,3,test,R,87,2,740,260,R,1,<rshift>,1,1,464792,403
Control_ts_19B,3,test,R,88,4,740,460,R,1,<rshift>,1,1,465788,554
Control_ts_19B,3,test,R,89,4,740,460,P,0,NONE,0,1,466790,952
Control_ts_19B,3,test,R,90,3,540,460,R,1,<rshift>,1,1,467791,468
Control_ts_19B,3,test,R,91,1,540,260,R,1,<rshift>,1,1,468790,409
Control_ts_19B,3,test,R,92,2,740,260,R,1,<rshift>,1,1,469788,452
Control_ts_19B,3,test,R,93,1,540,260,R,1,<rshift>,1,1,470788,361
Control_ts_19B,3,test,R,94,3,540,460,P,0,<rshift>,1,0,471795,385
Control_ts_19B,3,test,R,95,2,740,260,R,1,<rshift>,1,1,472792,487
Control_ts_19B,3,test,R,96,1,540,260,P,0,NONE,0,1,473792,953
Control_ts_19B,3,test,R,97,3,540,460,R,1,<rshift>,1,1,474795,519
Control_ts_19B,3,test,R,98,2,740,260,P,0,NONE,0,1,475792,953
Control_ts_19B,3,test,R,99,1,540,260,R,1,<rshift>,1,1,476788,453
Control_ts_19B,3,test,R,100,4,740,460,R,1,<rshift>,1,1,477792,571
Control_ts_19B,3,test,R,101,1,540,260,R,1,<rshift>,1,1,478788,398
Control_ts_19B,3,test,R,102,4,740,460,R,1,<rshift>,1,1,479789,416
Control_ts_19B,3,test,R,103,1,540,260,P,0,<rshift>,1,0,480793,377
Control_ts_19B,3,test,R,104,3,540,460,R,1,<rshift>,1,1,481795,521
Control_ts_19B,3,test,R,105,2,740,260,R,1,<rshift>,1,1,482791,520
Control_ts_19B,3,test,R,106,2,740,260,R,1,<rshift>,1,1,483790,417
Control_ts_19B,3,test,R,107,3,540,460,R,1,<rshift>,1,1,484795,483
Control_ts_19B,3,test,R,108,3,540,460,R,1,<rshift>,1,1,485792,446
Control_ts_19B,3,test,R,109,3,540,460,R,1,<rshift>,1,1,486790,548
Control_ts_19B,3,test,R,110,4,740,460,P,0,NONE,0,1,487795,953
Control_ts_19B,3,test,R,111,2,740,260,P,0,NONE,0,1,488788,953
Control_ts_19B,3,test,R,112,3,540,460,R,1,<rshift>,1,1,489789,522
Control_ts_19B,3,test,R,113,1,540,260,R,1,<rshift>,1,1,490791,329
Control_ts_19B,3,test,R,114,4,740,460,R,1,<rshift>,1,1,491793,414
Control_ts_19B,3,test,R,115,4,740,460,R,1,<rshift>,1,1,492792,519
Control_ts_19B,3,test,R,116,2,740,260,R,1,<rshift>,1,1,493792,398
Control_ts_19B,3,test,R,117,4,740,460,R,1,<rshift>,1,1,494790,403
Control_ts_19B,3,test,R,118,1,540,260,P,0,NONE,0,1,495789,953
Control_ts_19B,3,test,R,119,4,740,460,R,1,<rshift>,1,1,496794,330
Control_ts_19B,3,test,R,120,4,740,460,P,0,NONE,0,1,497790,952
Control_ts_19B,3,test,R,121,2,740,260,R,1,<rshift>,1,1,498789,440
Control_ts_19B,3,test,R,122,4,740,460,R,1,<rshift>,1,1,499792,463
Control_ts_19B,3,test,R,123,1,540,260,R,1,<rshift>,1,1,500792,442
Control_ts_19B,3,test,R,124,1,540,260,R,1,<rshift>,1,1,501791,372
Control_ts_19B,3,test,R,125,1,540,260,R,1,<rshift>,1,1,502795,416
Control_ts_19B,3,test,R,126,1,540,260,R,1,<rshift>,1,1,503790,421
Control_ts_19B,3,test,R,127,2,740,260,R,1,<rshift>,1,1,504787,494
Control_ts_19B,3,test,R,128,3,540,460,P,0,NONE,0,1,505795,952
Control_ts_19B,3,test,R,129,2,740,260,R,1,<rshift>,1,1,506793,356
Control_ts_19B,3,test,R,130,4,740,460,R,1,<rshift>,1,1,507788,448
Control_ts_19B,3,test,R,131,2,740,260,R,1,<rshift>,1,1,508791,466
Control_ts_19B,3,test,R,132,4,740,460,R,1,<rshift>,1,1,509790,455
Control_ts_19B,3,test,R,133,4,740,460,R,1,<rshift>,1,1,510790,427
Control_ts_19B,3,test,R,134,2,740,260,P,0,NONE,0,1,511789,952
Control_ts_19B,3,test,R,135,1,540,260,R,1,<rshift>,1,1,512793,412
Control_ts_19B,3,test,R,136,4,740,460,R,1,<rshift>,1,1,513791,435
Control_ts_19B,3,test,R,137,4,740,460,R,1,<rshift>,1,1,514792,454
Control_ts_19B,3,test,R,138,2,740,260,R,1,<rshift>,1,1,515791,430
Control_ts_19B,3,test,R,139,4,740,460,R,1,<rshift>,1,1,516792,415
Control_ts_19B,3,test,R,140,4,740,460,P,0,NONE,0,1,517794,952
Control_ts_19B,3,test,R,141,3,540,460,R,1,<rshift>,1,1,518789,387
Control_ts_19B,3,test,R,142,1,540,260,R,1,<rshift>,1,1,519790,445
Control_ts_19B,3,test,R,143,2,740,260,R,1,<rshift>,1,1,520794,359
Control_ts_19B,3,test,R,144,3,540,460,R,1,<rshift>,1,1,521790,404
Control_ts_19B,3,test,R,145,1,540,260,P,0,NONE,0,1,522791,952
Control_ts_19B,3,test,R,146,1,540,260,R,1,<rshift>,1,1,523794,389
Control_ts_19B,3,test,R,147,3,540,460,P,0,NONE,0,1,524791,953
Control_ts_19B,3,test,R,148,3,540,460,R,1,<rshift>,1,1,525791,537
Control_ts_19B,3,test,R,149,3,540,460,P,0,<rshift>,1,0,526791,332
Control_ts_19B,3,test,R,150,4,740,460,R,1,<rshift>,1,1,527795,336
Control_ts_19B,3,test,R,151,1,540,260,R,1,<rshift>,1,1,528791,412
Control_ts_19B,3,test,R,152,4,740,460,R,1,<rshift>,1,1,529790,452
Control_ts_19B,3,test,R,153,3,540,460,R,1,<rshift>,1,1,530796,444
Control_ts_19B,3,test,R,154,4,740,460,R,1,<rshift>,1,1,531792,455
Control_ts_19B,3,test,R,155,4,740,460,R,1,<rshift>,1,1,532788,431
Control_ts_19B,3,test,R,156,1,540,260,R,1,<rshift>,1,1,533793,454
Control_ts_19B,3,test,R,157,1,540,260,R,1,<rshift>,1,1,534792,442
Control_ts_19B,3,test,R,158,2,740,260,R,1,<rshift>,1,1,535795,440
Control_ts_19B,3,test,R,159,2,740,260,R,1,<rshift>,1,1,536787,473
Control_ts_19B,3,test,R,160,3,540,460,R,1,<rshift>,1,1,537790,437
Control_ts_19B,3,test,R,161,2,740,260,R,1,<rshift>,1,1,538793,474
Control_ts_19B,3,test,R,162,4,740,460,R,1,<rshift>,1,1,539791,534
Control_ts_19B,3,test,R,163,1,540,260,R,1,<rshift>,1,1,540794,472
Control_ts_19B,3,test,R,164,2,740,260,P,0,NONE,0,1,541792,952
Control_ts_19B,3,test,R,165,1,540,260,R,1,<rshift>,1,1,542791,437
Control_ts_19B,3,test,R,166,3,540,460,R,1,<rshift>,1,1,543789,419
Control_ts_19B,3,test,R,167,4,740,460,R,1,<rshift>,1,1,544797,379
Control_ts_19B,3,test,R,168,1,540,260,P,0,<rshift>,1,0,545792,386
Control_ts_19B,3,test,R,169,2,740,260,R,1,<rshift>,1,1,546792,865
Control_ts_19B,3,test,R,170,1,540,260,R,1,<rshift>,1,1,547795,568
Control_ts_19B,3,test,R,171,4,740,460,P,0,NONE,0,1,548794,951
Control_ts_19B,3,test,R,172,1,540,260,R,1,<rshift>,1,1,549791,474
Control_ts_19B,3,test,R,173,2,740,260,P,0,NONE,0,1,550799,953
Control_ts_19B,3,test,R,174,1,540,260,R,1,<rshift>,1,1,551789,456
Control_ts_19B,3,test,R,175,2,740,260,P,0,<rshift>,1,0,552794,335
Control_ts_19B,3,test,R,176,1,540,260,R,1,<rshift>,1,1,553790,376
Control_ts_19B,3,test,R,177,2,740,260,R,1,<rshift>,1,1,554792,483
Control_ts_19B,3,test,R,178,4,740,460,R,1,<rshift>,1,1,555796,476
Control_ts_19B,3,test,R,179,3,540,460,R,1,<rshift>,1,1,556788,523
Control_ts_19B,3,test,R,180,1,540,260,R,1,<rshift>,1,1,557795,416
Control_ts_19B,3,test,R,181,3,540,460,R,1,<rshift>,1,1,558790,484
Control_ts_19B,3,test,R,182,4,740,460,R,1,<rshift>,1,1,559795,440
Control_ts_19B,3,test,R,183,4,740,460,R,1,<rshift>,1,1,560791,445
Control_ts_19B,3,test,R,184,4,740,460,R,1,<rshift>,1,1,561795,464
Control_ts_19B,3,test,R,185,2,740,260,R,1,<rshift>,1,1,562795,440
Control_ts_19B,3,test,R,186,4,740,460,R,1,<rshift>,1,1,563793,401
Control_ts_19B,3,test,R,187,4,740,460,R,1,<rshift>,1,1,564791,409
Control_ts_19B,3,test,R,188,2,740,260,P,0,NONE,0,1,565792,952
Control_ts_19B,3,test,R,189,2,740,260,P,0,<rshift>,1,0,566791,308
Control_ts_19B,3,test,R,190,3,540,460,R,1,<rshift>,1,1,567793,385
Control_ts_19B,3,test,R,191,4,740,460,P,0,<rshift>,1,0,568790,372
Control_ts_19B,3,test,R,192,2,740,260,R,1,<rshift>,1,1,569792,390
Control_ts_19B,3,test,R,193,3,540,460,R,1,<rshift>,1,1,570790,422
Control_ts_19B,3,test,R,194,4,740,460,R,1,<rshift>,1,1,571788,524
Control_ts_19B,3,test,R,195,1,540,260,P,0,NONE,0,1,572792,953
Control_ts_19B,3,test,R,196,4,740,460,R,1,<rshift>,1,1,573791,314
Control_ts_19B,3,test,R,197,4,740,460,P,0,NONE,0,1,574792,952
Control_ts_19B,3,test,R,198,1,540,260,R,1,<rshift>,1,1,575790,407
Control_ts_19B,3,test,R,199,2,740,260,P,0,NONE,0,1,576796,952
Control_ts_19B,3,test,R,200,2,740,260,R,1,<rshift>,1,1,577795,549
Control_ts_19B,3,test,R,201,2,740,260,R,1,<rshift>,1,1,578792,369
Control_ts_19B,3,test,R,202,2,740,260,R,1,<rshift>,1,1,579793,353
Control_ts_19B,3,test,R,203,4,740,460,R,1,<rshift>,1,1,580793,431
Control_ts_19B,3,test,R,204,4,740,460,R,1,<rshift>,1,1,581796,348
Control_ts_19B,3,test,R,205,2,740,260,R,1,<rshift>,1,1,582787,331
Control_ts_19B,3,test,R,206,1,540,260,P,0,<rshift>,1,0,583791,309
Control_ts_19B,3,test,R,207,2,740,260,P,0,NONE,0,1,584794,953
Control_ts_19B,3,test,R,208,2,740,260,R,1,<rshift>,1,1,585789,354
Control_ts_19B,3,test,R,209,4,740,460,R,1,<rshift>,1,1,586793,475
Control_ts_19B,3,test,R,210,4,740,460,R,1,<rshift>,1,1,587793,381
Control_ts_19B,3,test,R,211,1,540,260,R,1,<rshift>,1,1,588791,644
Control_ts_19B,3,test,R,212,1,540,260,R,1,<rshift>,1,1,589790,337
Control_ts_19B,3,test,R,213,2,740,260,R,1,<rshift>,1,1,590792,347
Control_ts_19B,3,test,R,214,2,740,260,R,1,<rshift>,1,1,591792,402
Control_ts_19B,3,test,R,215,2,740,260,R,1,<rshift>,1,1,592795,417
Control_ts_19B,3,test,R,216,1,540,260,R,1,<rshift>,1,1,593789,679
Control_ts_19B,3,test,R,217,1,540,260,R,1,<rshift>,1,1,594791,408
Control_ts_19B,3,test,R,218,2,740,260,R,1,<rshift>,1,1,595791,352
Control_ts_19B,3,test,R,219,2,740,260,R,1,<rshift>,1,1,596793,317
Control_ts_19B,3,test,R,220,1,540,260,R,1,<rshift>,1,1,597791,343
Control_ts_19B,3,test,R,221,3,540,460,R,1,<rshift>,1,1,598792,359
Control_ts_19B,3,test,R,222,4,740,460,R,1,<rshift>,1,1,599798,379
Control_ts_19B,3,test,R,223,2,740,260,R,1,<rshift>,1,1,600792,320
Control_ts_19B,3,test,R,224,3,540,460,R,1,<rshift>,1,1,601791,358
Control_ts_19B,3,test,R,225,4,740,460,R,1,<rshift>,1,1,602790,376
Control_ts_19B,3,test,R,226,1,540,260,R,1,<rshift>,1,1,603793,405
Control_ts_19B,3,test,R,227,3,540,460,R,1,<rshift>,1,1,604791,449
Control_ts_19B,3,test,R,228,1,540,260,R,1,<rshift>,1,1,605791,532
Control_ts_19B,3,test,R,229,4,740,460,P,0,NONE,0,1,606797,952
Control_ts_19B,3,test,R,230,1,540,260,R,1,<rshift>,1,1,607789,266
Control_ts_19B,3,test,R,231,2,740,260,R,1,<rshift>,1,1,608795,336
Control_ts_19B,3,test,R,232,4,740,460,P,0,<rshift>,1,0,609789,408
Control_ts_19B,3,test,R,233,1,540,260,R,1,<rshift>,1,1,610794,350
Control_ts_19B,3,test,R,234,3,540,460,P,0,NONE,0,1,611792,952
Control_ts_19B,3,test,R,235,3,540,460,P,0,NONE,0,1,612797,953
Control_ts_19B,3,test,R,236,1,540,260,R,1,<rshift>,1,1,613789,332
Control_ts_19B,3,test,R,237,1,540,260,R,1,<rshift>,1,1,614792,481
Control_ts_19B,3,test,R,238,1,540,260,R,1,<rshift>,1,1,615794,468
Control_ts_19B,3,test,R,239,3,540,460,R,1,<rshift>,1,1,616793,475
Control_ts_19B,3,test,R,240,1,540,260,R,1,<rshift>,1,1,617793,641
Control_ts_19B,3,test,R,241,4,740,460,P,0,<rshift>,1,0,618790,517
Control_ts_19B,3,test,R,242,4,740,460,R,1,<rshift>,1,1,619793,464
Control_ts_19B,3,test,R,243,1,540,260,P,0,<rshift>,1,0,620794,466
Control_ts_19B,3,test,R,244,1,540,260,R,1,<rshift>,1,1,621788,440
Control_ts_19B,3,test,R,245,3,540,460,R,1,<rshift>,1,1,622797,473
Control_ts_19B,3,test,R,246,2,740,260,R,1,<rshift>,1,1,623788,347
Control_ts_19B,3,test,R,247,3,540,460,R,1,<rshift>,1,1,624795,354
Control_ts_19B,3,test,R,248,1,540,260,P,0,NONE,0,1,625793,953
Control_ts_19B,3,test,R,249,3,540,460,R,1,<rshift>,1,1,626793,344
Control_ts_19B,3,test,R,250,2,740,260,P,0,NONE,0,1,627788,952
Control_ts_19B,3,test,R,251,4,740,460,R,1,<rshift>,1,1,628790,349
Control_ts_19B,3,test,R,252,1,540,260,R,1,<rshift>,1,1,629788,432
Control_ts_19B,3,test,R,253,3,540,460,R,1,<rshift>,1,1,630794,344
Control_ts_19B,3,test,R,254,1,540,260,R,1,<rshift>,1,1,631793,448
Control_ts_19B,3,test,R,255,4,740,460,R,1,<rshift>,1,1,632790,368
Control_ts_19B,3,test,R,256,2,740,260,P,0,NONE,0,1,633788,953
Control_ts_19B,3,test,R,257,3,540,460,R,1,<rshift>,1,1,634798,340
Control_ts_19B,3,test,R,258,2,740,260,R,1,<rshift>,1,1,635792,370
Control_ts_19B,3,test,R,259,2,740,260,R,1,<rshift>,1,1,636792,523
Control_ts_19B,3,test,R,260,2,740,260,R,1,<rshift>,1,1,637789,359
Control_ts_19B,3,test,R,261,3,540,460,R,1,<rshift>,1,1,638792,499
Control_ts_19B,3,test,R,262,3,540,460,R,1,<rshift>,1,1,639795,371
Control_ts_19B,3,test,R,263,1,540,260,R,1,<rshift>,1,1,640789,339
Control_ts_19B,3,test,R,264,2,740,260,R,1,<rshift>,1,1,641796,390
Control_ts_19B,3,test,R,265,4,740,460,R,1,<rshift>,1,1,642791,358
Control_ts_19B,3,test,R,266,2,740,260,R,1,<rshift>,1,1,643794,311
Control_ts_19B,3,test,R,267,2,740,260,R,1,<rshift>,1,1,644791,411
Control_ts_19B,3,test,R,268,2,740,260,R,1,<rshift>,1,1,645796,336
Control_ts_19B,3,test,R,269,1,540,260,R,1,<rshift>,1,1,646795,441
Control_ts_19B,3,test,R,270,4,740,460,R,1,<rshift>,1,1,647791,333
Control_ts_19B,3,test,R,271,1,540,260,R,1,<rshift>,1,1,648790,338
Control_ts_19B,3,test,R,272,2,740,260,R,1,<rshift>,1,1,649788,375
Control_ts_19B,3,test,R,273,4,740,460,R,1,<rshift>,1,1,650790,365
Control_ts_19B,3,test,R,274,1,540,260,R,1,<rshift>,1,1,651795,332
Control_ts_19B,3,test,R,275,2,740,260,P,0,<rshift>,1,0,652789,366
Control_ts_19B,3,test,R,276,4,740,460,R,1,<rshift>,1,1,653795,426
Control_ts_19B,3,test,R,277,2,740,260,P,0,NONE,0,1,654790,951
Control_ts_19B,3,test,R,278,4,740,460,R,1,<rshift>,1,1,655790,347
Control_ts_19B,3,test,R,279,2,740,260,R,1,<rshift>,1,1,656788,373
Control_ts_19B,3,test,R,280,3,540,460,R,1,<rshift>,1,1,657794,438
Control_ts_19B,3,test,R,281,4,740,460,R,1,<rshift>,1,1,658790,353
Control_ts_19B,3,test,R,282,2,740,260,R,1,<rshift>,1,1,659791,408
Control_ts_19B,3,test,R,283,2,740,260,R,1,<rshift>,1,1,660790,672
Control_ts_19B,3,test,R,284,2,740,260,R,1,<rshift>,1,1,661795,392
Control_ts_19B,3,test,R,285,4,740,460,R,1,<rshift>,1,1,662788,376
Control_ts_19B,3,test,R,286,1,540,260,R,1,<rshift>,1,1,663788,363
Control_ts_19B,3,test,R,287,3,540,460,R,1,<rshift>,1,1,664795,348
Control_ts_19B,3,test,R,288,3,540,460,R,1,<rshift>,1,1,665791,369
Control_ts_19B,3,test,R,289,3,540,460,R,1,<rshift>,1,1,666788,368
Control_ts_19B,3,test,R,290,1,540,260,R,1,<rshift>,1,1,667791,393
Control_ts_19B,3,test,R,291,3,540,460,R,1,<rshift>,1,1,668789,408
Control_ts_19B,3,test,R,292,2,740,260,R,1,<rshift>,1,1,669792,414
Control_ts_19B,3,test,R,293,4,740,460,R,1,<rshift>,1,1,670791,412
Control_ts_19B,3,test,R,294,3,540,460,R,1,<rshift>,1,1,671789,454
Control_ts_19B,3,test,R,295,3,540,460,R,1,<rshift>,1,1,672792,444
Control_ts_19B,3,test,R,296,4,740,460,R,1,<rshift>,1,1,673797,447
Control_ts_19B,3,test,R,297,1,540,260,R,1,<rshift>,1,1,674793,462
Control_ts_19B,3,test,R,298,4,740,460,R,1,<rshift>,1,1,675797,442
Control_ts_19B,3,test,R,299,1,540,260,R,1,<rshift>,1,1,676794,473
Control_ts_19B,3,test,R,300,1,540,260,R,1,<rshift>,1,1,677795,455
