subnum,block,type,correctresponse,trial,choice,x,y,stim,present,response,responded,corr,starttime,rt
Control_TS_16_B,0,practice,P,1,1,620,350,P,1,<rshift>,1,1,14778,556
Control_TS_16_B,0,practice,P,2,1,620,350,P,1,<rshift>,1,1,15776,342
Control_TS_16_B,0,practice,P,3,2,820,350,P,1,<rshift>,1,1,16775,333
Control_TS_16_B,0,practice,P,4,3,620,550,P,1,<rshift>,1,1,17775,320
Control_TS_16_B,0,practice,P,5,2,820,350,P,1,<rshift>,1,1,18775,303
Control_TS_16_B,0,practice,P,6,2,820,350,P,1,<rshift>,1,1,19775,332
Control_TS_16_B,0,practice,P,7,1,620,350,P,1,<rshift>,1,1,20775,291
Control_TS_16_B,0,practice,P,8,1,620,350,R,0,<rshift>,1,0,21775,349
Control_TS_16_B,0,practice,P,9,4,820,550,P,1,<rshift>,1,1,23184,457
Control_TS_16_B,0,practice,P,10,4,820,550,R,0,NONE,0,1,23775,950
Control_TS_16_B,1,test,P,1,2,820,350,P,1,<rshift>,1,1,27792,406
Control_TS_16_B,1,test,P,2,3,620,550,P,1,<rshift>,1,1,28791,291
Control_TS_16_B,1,test,P,3,2,820,350,P,1,<rshift>,1,1,29791,268
Control_TS_16_B,1,test,P,4,1,620,350,P,1,<rshift>,1,1,30791,261
Control_TS_16_B,1,test,P,5,1,620,350,R,0,<rshift>,1,0,31791,321
Control_TS_16_B,1,test,P,6,4,820,550,P,1,<rshift>,1,1,32791,330
Control_TS_16_B,1,test,P,7,1,620,350,P,1,<rshift>,1,1,33791,340
Control_TS_16_B,1,test,P,8,2,820,350,P,1,<rshift>,1,1,34792,326
Control_TS_16_B,1,test,P,9,1,620,350,P,1,<rshift>,1,1,35791,296
Control_TS_16_B,1,test,P,10,1,620,350,P,1,<rshift>,1,1,36791,452
Control_TS_16_B,1,test,P,11,4,820,550,R,0,<rshift>,1,0,37791,300
Control_TS_16_B,1,test,P,12,3,620,550,P,1,<rshift>,1,1,38791,361
Control_TS_16_B,1,test,P,13,2,820,350,P,1,<rshift>,1,1,39791,422
Control_TS_16_B,1,test,P,14,4,820,550,R,0,NONE,0,1,40791,950
Control_TS_16_B,1,test,P,15,2,820,350,P,1,<rshift>,1,1,41791,485
Control_TS_16_B,1,test,P,16,4,820,550,P,1,<rshift>,1,1,42791,374
Control_TS_16_B,1,test,P,17,3,620,550,R,0,<rshift>,1,0,43791,359
Control_TS_16_B,1,test,P,18,1,620,350,P,1,<rshift>,1,1,44791,329
Control_TS_16_B,1,test,P,19,1,620,350,R,0,<rshift>,1,0,45791,351
Control_TS_16_B,1,test,P,20,3,620,550,R,0,<rshift>,1,0,46791,343
Control_TS_16_B,1,test,P,21,1,620,350,P,1,<rshift>,1,1,47791,327
Control_TS_16_B,1,test,P,22,4,820,550,P,1,NONE,0,0,48791,950
Control_TS_16_B,1,test,P,23,4,820,550,P,1,<rshift>,1,1,49791,335
Control_TS_16_B,1,test,P,24,2,820,350,P,1,<rshift>,1,1,50791,305
Control_TS_16_B,1,test,P,25,2,820,350,P,1,<rshift>,1,1,51791,304
Control_TS_16_B,1,test,P,26,1,620,350,P,1,<rshift>,1,1,52791,297
Control_TS_16_B,1,test,P,27,2,820,350,R,0,NONE,0,1,53791,950
Control_TS_16_B,1,test,P,28,2,820,350,P,1,<rshift>,1,1,54791,360
Control_TS_16_B,1,test,P,29,2,820,350,P,1,<rshift>,1,1,55791,293
Control_TS_16_B,1,test,P,30,4,820,550,R,0,NONE,0,1,56791,950
Control_TS_16_B,1,test,P,31,3,620,550,P,1,<rshift>,1,1,57791,354
Control_TS_16_B,1,test,P,32,1,620,350,P,1,<rshift>,1,1,58791,308
Control_TS_16_B,1,test,P,33,4,820,550,P,1,<rshift>,1,1,59791,335
Control_TS_16_B,1,test,P,34,3,620,550,P,1,<rshift>,1,1,60791,462
Control_TS_16_B,1,test,P,35,1,620,350,P,1,<rshift>,1,1,61791,307
Control_TS_16_B,1,test,P,36,2,820,350,P,1,<rshift>,1,1,62791,260
Control_TS_16_B,1,test,P,37,1,620,350,P,1,<rshift>,1,1,63791,330
Control_TS_16_B,1,test,P,38,4,820,550,P,1,<rshift>,1,1,64791,441
Control_TS_16_B,1,test,P,39,2,820,350,P,1,<rshift>,1,1,65791,338
Control_TS_16_B,1,test,P,40,3,620,550,R,0,<rshift>,1,0,66791,377
Control_TS_16_B,1,test,P,41,2,820,350,P,1,<rshift>,1,1,67791,314
Control_TS_16_B,1,test,P,42,2,820,350,P,1,<rshift>,1,1,68791,297
Control_TS_16_B,1,test,P,43,2,820,350,P,1,<rshift>,1,1,69791,356
Control_TS_16_B,1,test,P,44,2,820,350,P,1,<rshift>,1,1,70791,316
Control_TS_16_B,1,test,P,45,4,820,550,P,1,<rshift>,1,1,71791,324
Control_TS_16_B,1,test,P,46,2,820,350,P,1,<rshift>,1,1,72791,359
Control_TS_16_B,1,test,P,47,1,620,350,P,1,<rshift>,1,1,73791,515
Control_TS_16_B,1,test,P,48,4,820,550,P,1,<rshift>,1,1,74791,310
Control_TS_16_B,1,test,P,49,3,620,550,P,1,<rshift>,1,1,75791,322
Control_TS_16_B,1,test,P,50,2,820,350,P,1,<rshift>,1,1,76791,296
Control_TS_16_B,1,test,P,51,4,820,550,P,1,<rshift>,1,1,77791,289
Control_TS_16_B,1,test,P,52,3,620,550,P,1,<rshift>,1,1,78791,356
Control_TS_16_B,1,test,P,53,4,820,550,P,1,<rshift>,1,1,79791,363
Control_TS_16_B,1,test,P,54,1,620,350,P,1,<rshift>,1,1,80792,538
Control_TS_16_B,1,test,P,55,3,620,550,P,1,<rshift>,1,1,81792,473
Control_TS_16_B,1,test,P,56,4,820,550,R,0,<rshift>,1,0,82792,300
Control_TS_16_B,1,test,P,57,4,820,550,P,1,<rshift>,1,1,83791,433
Control_TS_16_B,1,test,P,58,2,820,350,P,1,<rshift>,1,1,84791,412
Control_TS_16_B,1,test,P,59,4,820,550,P,1,<rshift>,1,1,85791,427
Control_TS_16_B,1,test,P,60,1,620,350,P,1,<rshift>,1,1,86791,449
Control_TS_16_B,1,test,P,61,1,620,350,P,1,<rshift>,1,1,87791,353
Control_TS_16_B,1,test,P,62,1,620,350,P,1,<rshift>,1,1,88791,336
Control_TS_16_B,1,test,P,63,1,620,350,P,1,<rshift>,1,1,89791,319
Control_TS_16_B,1,test,P,64,2,820,350,P,1,<rshift>,1,1,90791,317
Control_TS_16_B,1,test,P,65,2,820,350,P,1,<rshift>,1,1,91791,378
Control_TS_16_B,1,test,P,66,4,820,550,R,0,<rshift>,1,0,92791,284
Control_TS_16_B,1,test,P,67,4,820,550,P,1,<rshift>,1,1,93791,515
Control_TS_16_B,1,test,P,68,1,620,350,P,1,<rshift>,1,1,94791,326
Control_TS_16_B,1,test,P,69,1,620,350,R,0,<rshift>,1,0,95791,317
Control_TS_16_B,1,test,P,70,1,620,350,P,1,<rshift>,1,1,96791,346
Control_TS_16_B,1,test,P,71,4,820,550,P,1,<rshift>,1,1,97791,430
Control_TS_16_B,1,test,P,72,3,620,550,P,1,<rshift>,1,1,98791,324
Control_TS_16_B,1,test,P,73,1,620,350,P,1,<rshift>,1,1,99791,328
Control_TS_16_B,1,test,P,74,1,620,350,R,0,<rshift>,1,0,100790,311
Control_TS_16_B,1,test,P,75,3,620,550,R,0,<rshift>,1,0,101791,311
Control_TS_16_B,1,test,P,76,1,620,350,P,1,<rshift>,1,1,102791,382
Control_TS_16_B,1,test,P,77,2,820,350,R,0,<rshift>,1,0,103791,289
Control_TS_16_B,1,test,P,78,1,620,350,P,1,<rshift>,1,1,104791,364
Control_TS_16_B,1,test,P,79,4,820,550,P,1,<rshift>,1,1,105791,335
Control_TS_16_B,1,test,P,80,2,820,350,P,1,<rshift>,1,1,106791,456
Control_TS_16_B,1,test,P,81,4,820,550,P,1,<rshift>,1,1,107791,357
Control_TS_16_B,1,test,P,82,2,820,350,P,1,<rshift>,1,1,108791,318
Control_TS_16_B,1,test,P,83,2,820,350,P,1,<rshift>,1,1,109791,360
Control_TS_16_B,1,test,P,84,3,620,550,R,0,<rshift>,1,0,110791,291
Control_TS_16_B,1,test,P,85,2,820,350,R,0,NONE,0,1,111791,950
Control_TS_16_B,1,test,P,86,2,820,350,P,1,<rshift>,1,1,112791,515
Control_TS_16_B,1,test,P,87,4,820,550,P,1,<rshift>,1,1,113791,346
Control_TS_16_B,1,test,P,88,3,620,550,P,1,<rshift>,1,1,114791,272
Control_TS_16_B,1,test,P,89,3,620,550,P,1,<rshift>,1,1,115791,286
Control_TS_16_B,1,test,P,90,1,620,350,P,1,<rshift>,1,1,116791,297
Control_TS_16_B,1,test,P,91,4,820,550,R,0,<rshift>,1,0,117791,286
Control_TS_16_B,1,test,P,92,1,620,350,P,1,<rshift>,1,1,118791,461
Control_TS_16_B,1,test,P,93,1,620,350,P,1,<rshift>,1,1,119791,302
Control_TS_16_B,1,test,P,94,3,620,550,P,1,<rshift>,1,1,120791,319
Control_TS_16_B,1,test,P,95,1,620,350,P,1,<rshift>,1,1,121791,279
Control_TS_16_B,1,test,P,96,1,620,350,P,1,<rshift>,1,1,122791,317
Control_TS_16_B,1,test,P,97,2,820,350,P,1,<rshift>,1,1,123791,383
Control_TS_16_B,1,test,P,98,3,620,550,P,1,<rshift>,1,1,124791,299
Control_TS_16_B,1,test,P,99,2,820,350,P,1,<rshift>,1,1,125791,292
Control_TS_16_B,1,test,P,100,1,620,350,P,1,<rshift>,1,1,126791,262
Control_TS_16_B,1,test,P,101,4,820,550,R,0,NONE,0,1,127791,950
Control_TS_16_B,1,test,P,102,3,620,550,R,0,<rshift>,1,0,128791,282
Control_TS_16_B,1,test,P,103,4,820,550,P,1,<rshift>,1,1,129791,413
Control_TS_16_B,1,test,P,104,3,620,550,P,1,<rshift>,1,1,130791,281
Control_TS_16_B,1,test,P,105,3,620,550,R,0,<rshift>,1,0,131791,280
Control_TS_16_B,1,test,P,106,3,620,550,P,1,<rshift>,1,1,132791,308
Control_TS_16_B,1,test,P,107,2,820,350,P,1,<rshift>,1,1,133791,302
Control_TS_16_B,1,test,P,108,4,820,550,P,1,<rshift>,1,1,134791,265
Control_TS_16_B,1,test,P,109,1,620,350,P,1,<rshift>,1,1,135791,278
Control_TS_16_B,1,test,P,110,2,820,350,P,1,<rshift>,1,1,136791,399
Control_TS_16_B,1,test,P,111,3,620,550,P,1,<rshift>,1,1,137791,646
Control_TS_16_B,1,test,P,112,4,820,550,P,1,<rshift>,1,1,138791,655
Control_TS_16_B,1,test,P,113,3,620,550,P,1,NONE,0,0,139791,950
Control_TS_16_B,1,test,P,114,3,620,550,R,0,NONE,0,1,140791,950
Control_TS_16_B,1,test,P,115,1,620,350,P,1,<rshift>,1,1,141791,342
Control_TS_16_B,1,test,P,116,2,820,350,P,1,<rshift>,1,1,142791,320
Control_TS_16_B,1,test,P,117,3,620,550,P,1,<rshift>,1,1,143791,441
Control_TS_16_B,1,test,P,118,1,620,350,P,1,<rshift>,1,1,144791,373
Control_TS_16_B,1,test,P,119,3,620,550,P,1,<rshift>,1,1,145791,378
Control_TS_16_B,1,test,P,120,1,620,350,P,1,<rshift>,1,1,146791,392
Control_TS_16_B,1,test,P,121,4,820,550,P,1,<rshift>,1,1,147791,402
Control_TS_16_B,1,test,P,122,3,620,550,P,1,<rshift>,1,1,148791,357
Control_TS_16_B,1,test,P,123,2,820,350,R,0,<rshift>,1,0,149791,304
Control_TS_16_B,1,test,P,124,3,620,550,P,1,<rshift>,1,1,150791,399
Control_TS_16_B,1,test,P,125,4,820,550,P,1,<rshift>,1,1,151791,300
Control_TS_16_B,1,test,P,126,2,820,350,R,0,NONE,0,1,152791,950
Control_TS_16_B,1,test,P,127,3,620,550,P,1,<rshift>,1,1,153791,312
Control_TS_16_B,1,test,P,128,2,820,350,R,0,<rshift>,1,0,154791,292
Control_TS_16_B,1,test,P,129,1,620,350,P,1,<rshift>,1,1,155791,496
Control_TS_16_B,1,test,P,130,2,820,350,R,0,<rshift>,1,0,156791,323
Control_TS_16_B,1,test,P,131,1,620,350,P,1,<rshift>,1,1,157791,333
Control_TS_16_B,1,test,P,132,3,620,550,P,1,<rshift>,1,1,158791,401
Control_TS_16_B,1,test,P,133,3,620,550,R,0,<rshift>,1,0,159791,324
Control_TS_16_B,1,test,P,134,3,620,550,P,1,<rshift>,1,1,160791,323
Control_TS_16_B,1,test,P,135,2,820,350,R,0,NONE,0,1,161791,950
Control_TS_16_B,1,test,P,136,1,620,350,P,1,<rshift>,1,1,162791,326
Control_TS_16_B,1,test,P,137,4,820,550,P,1,<rshift>,1,1,163791,287
Control_TS_16_B,1,test,P,138,4,820,550,P,1,<rshift>,1,1,164791,324
Control_TS_16_B,1,test,P,139,4,820,550,P,1,<rshift>,1,1,165791,356
Control_TS_16_B,1,test,P,140,4,820,550,P,1,<rshift>,1,1,166791,359
Control_TS_16_B,1,test,P,141,2,820,350,R,0,NONE,0,1,167791,950
Control_TS_16_B,1,test,P,142,1,620,350,R,0,<rshift>,1,0,168791,260
Control_TS_16_B,1,test,P,143,1,620,350,P,1,<rshift>,1,1,169791,395
Control_TS_16_B,1,test,P,144,3,620,550,R,0,<rshift>,1,0,170791,391
Control_TS_16_B,1,test,P,145,1,620,350,P,1,<rshift>,1,1,171791,323
Control_TS_16_B,1,test,P,146,3,620,550,P,1,<rshift>,1,1,172791,346
Control_TS_16_B,1,test,P,147,4,820,550,P,1,<rshift>,1,1,173792,335
Control_TS_16_B,1,test,P,148,4,820,550,R,0,<rshift>,1,0,174791,293
Control_TS_16_B,1,test,P,149,2,820,350,P,1,<rshift>,1,1,175791,286
Control_TS_16_B,1,test,P,150,3,620,550,P,1,<rshift>,1,1,176791,305
Control_TS_16_B,1,test,P,151,2,820,350,P,1,<rshift>,1,1,177791,321
Control_TS_16_B,1,test,P,152,2,820,350,P,1,<rshift>,1,1,178791,299
Control_TS_16_B,1,test,P,153,2,820,350,R,0,<rshift>,1,0,179791,279
Control_TS_16_B,1,test,P,154,3,620,550,P,1,<rshift>,1,1,180791,321
Control_TS_16_B,1,test,P,155,1,620,350,P,1,<rshift>,1,1,181791,291
Control_TS_16_B,1,test,P,156,1,620,350,P,1,<rshift>,1,1,182791,329
Control_TS_16_B,1,test,P,157,3,620,550,P,1,<rshift>,1,1,183791,338
Control_TS_16_B,1,test,P,158,4,820,550,P,1,<rshift>,1,1,184791,343
Control_TS_16_B,1,test,P,159,4,820,550,P,1,<rshift>,1,1,185791,349
Control_TS_16_B,1,test,P,160,4,820,550,P,1,<rshift>,1,1,186791,349
Control_TS_16_B,1,test,P,161,4,820,550,P,1,<rshift>,1,1,187791,338
Control_TS_16_B,1,test,P,162,1,620,350,P,1,<rshift>,1,1,188791,384
Control_TS_16_B,1,test,P,163,3,620,550,P,1,<rshift>,1,1,189791,286
Control_TS_16_B,1,test,P,164,1,620,350,P,1,<rshift>,1,1,190791,325
Control_TS_16_B,1,test,P,165,2,820,350,P,1,<rshift>,1,1,191791,308
Control_TS_16_B,1,test,P,166,2,820,350,P,1,<rshift>,1,1,192791,301
Control_TS_16_B,1,test,P,167,2,820,350,P,1,<rshift>,1,1,193791,283
Control_TS_16_B,1,test,P,168,4,820,550,P,1,<rshift>,1,1,194791,323
Control_TS_16_B,1,test,P,169,4,820,550,P,1,<rshift>,1,1,195791,301
Control_TS_16_B,1,test,P,170,2,820,350,P,1,<rshift>,1,1,196791,305
Control_TS_16_B,1,test,P,171,4,820,550,P,1,<rshift>,1,1,197791,330
Control_TS_16_B,1,test,P,172,1,620,350,P,1,<rshift>,1,1,198791,361
Control_TS_16_B,1,test,P,173,2,820,350,P,1,<rshift>,1,1,199791,423
Control_TS_16_B,1,test,P,174,1,620,350,P,1,<rshift>,1,1,200791,286
Control_TS_16_B,1,test,P,175,2,820,350,P,1,<rshift>,1,1,201791,247
Control_TS_16_B,1,test,P,176,1,620,350,P,1,<rshift>,1,1,202791,276
Control_TS_16_B,1,test,P,177,4,820,550,R,0,<rshift>,1,0,203791,300
Control_TS_16_B,1,test,P,178,3,620,550,P,1,<rshift>,1,1,204791,328
Control_TS_16_B,1,test,P,179,4,820,550,P,1,<rshift>,1,1,205791,289
Control_TS_16_B,1,test,P,180,3,620,550,R,0,<rshift>,1,0,206791,302
Control_TS_16_B,1,test,P,181,3,620,550,P,1,<rshift>,1,1,207791,281
Control_TS_16_B,1,test,P,182,1,620,350,P,1,<rshift>,1,1,208791,282
Control_TS_16_B,1,test,P,183,1,620,350,P,1,<rshift>,1,1,209791,328
Control_TS_16_B,1,test,P,184,4,820,550,P,1,<rshift>,1,1,210791,280
Control_TS_16_B,1,test,P,185,1,620,350,R,0,<rshift>,1,0,211791,268
Control_TS_16_B,1,test,P,186,1,620,350,P,1,<rshift>,1,1,212791,489
Control_TS_16_B,1,test,P,187,4,820,550,R,0,<rshift>,1,0,213791,298
Control_TS_16_B,1,test,P,188,3,620,550,P,1,<rshift>,1,1,214791,387
Control_TS_16_B,1,test,P,189,3,620,550,P,1,<rshift>,1,1,215791,293
Control_TS_16_B,1,test,P,190,2,820,350,P,1,<rshift>,1,1,216791,467
Control_TS_16_B,1,test,P,191,4,820,550,R,0,<rshift>,1,0,217791,324
Control_TS_16_B,1,test,P,192,1,620,350,P,1,<rshift>,1,1,218791,293
Control_TS_16_B,1,test,P,193,1,620,350,P,1,<rshift>,1,1,219791,296
Control_TS_16_B,1,test,P,194,1,620,350,P,1,<rshift>,1,1,220791,330
Control_TS_16_B,1,test,P,195,4,820,550,P,1,<rshift>,1,1,221791,282
Control_TS_16_B,1,test,P,196,3,620,550,P,1,<rshift>,1,1,222791,303
Control_TS_16_B,1,test,P,197,1,620,350,R,0,<rshift>,1,0,223791,277
Control_TS_16_B,1,test,P,198,1,620,350,P,1,<rshift>,1,1,224791,302
Control_TS_16_B,1,test,P,199,1,620,350,P,1,<rshift>,1,1,225791,297
Control_TS_16_B,1,test,P,200,4,820,550,R,0,NONE,0,1,226791,950
Control_TS_16_B,1,test,P,201,4,820,550,R,0,NONE,0,1,227790,951
Control_TS_16_B,1,test,P,202,2,820,350,R,0,<rshift>,1,0,228791,370
Control_TS_16_B,1,test,P,203,3,620,550,P,1,<rshift>,1,1,229791,286
Control_TS_16_B,1,test,P,204,4,820,550,P,1,<rshift>,1,1,230791,292
Control_TS_16_B,1,test,P,205,4,820,550,P,1,<rshift>,1,1,231791,466
Control_TS_16_B,1,test,P,206,4,820,550,R,0,<rshift>,1,0,232791,265
Control_TS_16_B,1,test,P,207,2,820,350,P,1,<rshift>,1,1,233791,271
Control_TS_16_B,1,test,P,208,2,820,350,P,1,<rshift>,1,1,234791,266
Control_TS_16_B,1,test,P,209,2,820,350,R,0,<rshift>,1,0,235791,306
Control_TS_16_B,1,test,P,210,1,620,350,P,1,<rshift>,1,1,236791,381
Control_TS_16_B,1,test,P,211,1,620,350,P,1,<rshift>,1,1,237791,297
Control_TS_16_B,1,test,P,212,4,820,550,P,1,<rshift>,1,1,238791,307
Control_TS_16_B,1,test,P,213,3,620,550,P,1,<rshift>,1,1,239791,282
Control_TS_16_B,1,test,P,214,4,820,550,P,1,<rshift>,1,1,240791,300
Control_TS_16_B,1,test,P,215,4,820,550,P,1,<rshift>,1,1,241791,315
Control_TS_16_B,1,test,P,216,2,820,350,P,1,<rshift>,1,1,242791,472
Control_TS_16_B,1,test,P,217,3,620,550,R,0,NONE,0,1,243791,950
Control_TS_16_B,1,test,P,218,2,820,350,P,1,<rshift>,1,1,244791,259
Control_TS_16_B,1,test,P,219,4,820,550,P,1,<rshift>,1,1,245791,281
Control_TS_16_B,1,test,P,220,2,820,350,P,1,<rshift>,1,1,246791,281
Control_TS_16_B,1,test,P,221,3,620,550,P,1,<rshift>,1,1,247791,266
Control_TS_16_B,1,test,P,222,4,820,550,P,1,<rshift>,1,1,248791,290
Control_TS_16_B,1,test,P,223,1,620,350,P,1,<rshift>,1,1,249791,296
Control_TS_16_B,1,test,P,224,2,820,350,R,0,<rshift>,1,0,250791,286
Control_TS_16_B,1,test,P,225,3,620,550,P,1,<rshift>,1,1,251791,446
Control_TS_16_B,1,test,P,226,2,820,350,P,1,<rshift>,1,1,252791,316
Control_TS_16_B,1,test,P,227,3,620,550,P,1,<rshift>,1,1,253791,319
Control_TS_16_B,1,test,P,228,4,820,550,R,0,<rshift>,1,0,254792,306
Control_TS_16_B,1,test,P,229,2,820,350,P,1,<rshift>,1,1,255791,300
Control_TS_16_B,1,test,P,230,3,620,550,P,1,<rshift>,1,1,256791,295
Control_TS_16_B,1,test,P,231,3,620,550,P,1,<rshift>,1,1,257791,322
Control_TS_16_B,1,test,P,232,3,620,550,P,1,<rshift>,1,1,258791,335
Control_TS_16_B,1,test,P,233,4,820,550,P,1,<rshift>,1,1,259791,301
Control_TS_16_B,1,test,P,234,3,620,550,P,1,<rshift>,1,1,260791,338
Control_TS_16_B,1,test,P,235,3,620,550,P,1,<rshift>,1,1,261791,330
Control_TS_16_B,1,test,P,236,2,820,350,P,1,<rshift>,1,1,262791,270
Control_TS_16_B,1,test,P,237,1,620,350,R,0,<rshift>,1,0,263791,292
Control_TS_16_B,1,test,P,238,1,620,350,P,1,<rshift>,1,1,264791,278
Control_TS_16_B,1,test,P,239,3,620,550,R,0,<rshift>,1,0,265791,259
Control_TS_16_B,1,test,P,240,3,620,550,R,0,<rshift>,1,0,266791,295
Control_TS_16_B,1,test,P,241,2,820,350,R,0,NONE,0,1,267791,950
Control_TS_16_B,1,test,P,242,1,620,350,P,1,<rshift>,1,1,268791,306
Control_TS_16_B,1,test,P,243,3,620,550,P,1,<rshift>,1,1,269791,299
Control_TS_16_B,1,test,P,244,2,820,350,P,1,<rshift>,1,1,270791,312
Control_TS_16_B,1,test,P,245,4,820,550,R,0,<rshift>,1,0,271791,298
Control_TS_16_B,1,test,P,246,3,620,550,P,1,<rshift>,1,1,272791,327
Control_TS_16_B,1,test,P,247,1,620,350,R,0,<rshift>,1,0,273791,302
Control_TS_16_B,1,test,P,248,2,820,350,P,1,<rshift>,1,1,274791,460
Control_TS_16_B,1,test,P,249,1,620,350,P,1,<rshift>,1,1,275791,434
Control_TS_16_B,1,test,P,250,3,620,550,P,1,<rshift>,1,1,276791,316
Control_TS_16_B,1,test,P,251,2,820,350,R,0,NONE,0,1,277791,950
Control_TS_16_B,1,test,P,252,1,620,350,P,1,<rshift>,1,1,278791,281
Control_TS_16_B,1,test,P,253,3,620,550,P,1,<rshift>,1,1,279791,402
Control_TS_16_B,1,test,P,254,1,620,350,P,1,<rshift>,1,1,280791,310
Control_TS_16_B,1,test,P,255,3,620,550,P,1,<rshift>,1,1,281791,305
Control_TS_16_B,1,test,P,256,1,620,350,P,1,<rshift>,1,1,282791,284
Control_TS_16_B,1,test,P,257,2,820,350,P,1,<rshift>,1,1,283791,282
Control_TS_16_B,1,test,P,258,3,620,550,P,1,<rshift>,1,1,284791,274
Control_TS_16_B,1,test,P,259,2,820,350,P,1,<rshift>,1,1,285791,264
Control_TS_16_B,1,test,P,260,1,620,350,P,1,<rshift>,1,1,286791,256
Control_TS_16_B,1,test,P,261,4,820,550,P,1,<rshift>,1,1,287791,260
Control_TS_16_B,1,test,P,262,3,620,550,P,1,<rshift>,1,1,288791,268
Control_TS_16_B,1,test,P,263,3,620,550,P,1,<rshift>,1,1,289791,348
Control_TS_16_B,1,test,P,264,1,620,350,R,0,<rshift>,1,0,290791,303
Control_TS_16_B,1,test,P,265,3,620,550,P,1,<rshift>,1,1,291791,514
Control_TS_16_B,1,test,P,266,1,620,350,P,1,<rshift>,1,1,292791,293
Control_TS_16_B,1,test,P,267,1,620,350,P,1,<rshift>,1,1,293791,258
Control_TS_16_B,1,test,P,268,2,820,350,R,0,<rshift>,1,0,294791,254
Control_TS_16_B,1,test,P,269,4,820,550,P,1,<rshift>,1,1,295791,309
Control_TS_16_B,1,test,P,270,4,820,550,P,1,<rshift>,1,1,296791,466
Control_TS_16_B,1,test,P,271,1,620,350,R,0,<rshift>,1,0,297791,279
Control_TS_16_B,1,test,P,272,4,820,550,P,1,<rshift>,1,1,298791,281
Control_TS_16_B,1,test,P,273,2,820,350,P,1,<rshift>,1,1,299791,387
Control_TS_16_B,1,test,P,274,1,620,350,P,1,<rshift>,1,1,300791,366
Control_TS_16_B,1,test,P,275,3,620,550,R,0,<rshift>,1,0,301791,293
Control_TS_16_B,1,test,P,276,4,820,550,P,1,<rshift>,1,1,302791,313
Control_TS_16_B,1,test,P,277,4,820,550,R,0,<rshift>,1,0,303791,421
Control_TS_16_B,1,test,P,278,2,820,350,P,1,<rshift>,1,1,304791,358
Control_TS_16_B,1,test,P,279,1,620,350,P,1,<rshift>,1,1,305791,298
Control_TS_16_B,1,test,P,280,3,620,550,P,1,<rshift>,1,1,306791,291
Control_TS_16_B,1,test,P,281,3,620,550,P,1,<rshift>,1,1,307791,311
Control_TS_16_B,1,test,P,282,1,620,350,P,1,<rshift>,1,1,308791,338
Control_TS_16_B,1,test,P,283,3,620,550,P,1,<rshift>,1,1,309791,286
Control_TS_16_B,1,test,P,284,1,620,350,P,1,<rshift>,1,1,310791,276
Control_TS_16_B,1,test,P,285,2,820,350,P,1,<rshift>,1,1,311791,291
Control_TS_16_B,1,test,P,286,4,820,550,P,1,<rshift>,1,1,312791,331
Control_TS_16_B,1,test,P,287,2,820,350,P,1,<rshift>,1,1,313791,294
Control_TS_16_B,1,test,P,288,4,820,550,P,1,<rshift>,1,1,314791,292
Control_TS_16_B,1,test,P,289,2,820,350,P,1,<rshift>,1,1,315791,250
Control_TS_16_B,1,test,P,290,4,820,550,P,1,<rshift>,1,1,316791,338
Control_TS_16_B,1,test,P,291,4,820,550,P,1,<rshift>,1,1,317791,270
Control_TS_16_B,1,test,P,292,4,820,550,P,1,<rshift>,1,1,318791,515
Control_TS_16_B,1,test,P,293,3,620,550,R,0,<rshift>,1,0,319791,313
Control_TS_16_B,1,test,P,294,2,820,350,P,1,<rshift>,1,1,320791,253
Control_TS_16_B,1,test,P,295,1,620,350,P,1,<rshift>,1,1,321791,338
Control_TS_16_B,1,test,P,296,2,820,350,P,1,<rshift>,1,1,322791,452
Control_TS_16_B,1,test,P,297,1,620,350,P,1,<rshift>,1,1,323791,386
Control_TS_16_B,1,test,P,298,1,620,350,P,1,<rshift>,1,1,324791,306
Control_TS_16_B,1,test,P,299,4,820,550,P,1,<rshift>,1,1,325791,292
Control_TS_16_B,1,test,P,300,2,820,350,P,1,<rshift>,1,1,326791,268
Control_TS_16_B,2,practice,R,1,4,820,550,R,1,<rshift>,1,1,337398,633
Control_TS_16_B,2,practice,R,2,2,820,350,R,1,NONE,0,0,338397,951
Control_TS_16_B,2,practice,R,3,1,620,350,R,1,<rshift>,1,1,340392,706
Control_TS_16_B,2,practice,R,4,1,620,350,R,1,<rshift>,1,1,341113,456
Control_TS_16_B,2,practice,R,5,2,820,350,P,0,NONE,0,1,341599,950
Control_TS_16_B,2,practice,R,6,3,620,550,R,1,<rshift>,1,1,342564,364
Control_TS_16_B,2,practice,R,7,2,820,350,R,1,<rshift>,1,1,343398,289
Control_TS_16_B,2,practice,R,8,1,620,350,R,1,<rshift>,1,1,344398,256
Control_TS_16_B,2,practice,R,9,1,620,350,R,1,<rshift>,1,1,345398,335
Control_TS_16_B,2,practice,R,10,4,820,550,P,0,<rshift>,1,0,346397,246
Control_TS_16_B,3,test,R,1,1,620,350,R,1,<rshift>,1,1,349854,413
Control_TS_16_B,3,test,R,2,2,820,350,R,1,<rshift>,1,1,350853,265
Control_TS_16_B,3,test,R,3,1,620,350,R,1,<rshift>,1,1,351853,348
Control_TS_16_B,3,test,R,4,4,820,550,R,1,<rshift>,1,1,352853,321
Control_TS_16_B,3,test,R,5,4,820,550,R,1,<rshift>,1,1,353853,312
Control_TS_16_B,3,test,R,6,3,620,550,R,1,<rshift>,1,1,354853,293
Control_TS_16_B,3,test,R,7,2,820,350,R,1,<rshift>,1,1,355853,270
Control_TS_16_B,3,test,R,8,2,820,350,R,1,<rshift>,1,1,356853,328
Control_TS_16_B,3,test,R,9,1,620,350,R,1,<rshift>,1,1,357853,263
Control_TS_16_B,3,test,R,10,3,620,550,R,1,<rshift>,1,1,358853,218
Control_TS_16_B,3,test,R,11,2,820,350,R,1,<rshift>,1,1,359853,256
Control_TS_16_B,3,test,R,12,1,620,350,R,1,<rshift>,1,1,360853,253
Control_TS_16_B,3,test,R,13,1,620,350,R,1,<rshift>,1,1,361853,289
Control_TS_16_B,3,test,R,14,1,620,350,R,1,<rshift>,1,1,362853,248
Control_TS_16_B,3,test,R,15,2,820,350,P,0,<rshift>,1,0,363853,273
Control_TS_16_B,3,test,R,16,1,620,350,R,1,<rshift>,1,1,364853,327
Control_TS_16_B,3,test,R,17,2,820,350,R,1,<rshift>,1,1,365853,391
Control_TS_16_B,3,test,R,18,3,620,550,R,1,<rshift>,1,1,366853,321
Control_TS_16_B,3,test,R,19,1,620,350,R,1,<rshift>,1,1,367853,306
Control_TS_16_B,3,test,R,20,3,620,550,P,0,<rshift>,1,0,368854,262
Control_TS_16_B,3,test,R,21,1,620,350,R,1,<rshift>,1,1,369853,270
Control_TS_16_B,3,test,R,22,1,620,350,R,1,<rshift>,1,1,370853,262
Control_TS_16_B,3,test,R,23,2,820,350,R,1,<rshift>,1,1,371853,424
Control_TS_16_B,3,test,R,24,3,620,550,R,1,<rshift>,1,1,372853,279
Control_TS_16_B,3,test,R,25,3,620,550,P,0,<rshift>,1,0,373853,287
Control_TS_16_B,3,test,R,26,3,620,550,P,0,<rshift>,1,0,374853,372
Control_TS_16_B,3,test,R,27,2,820,350,R,1,<rshift>,1,1,375853,375
Control_TS_16_B,3,test,R,28,3,620,550,R,1,<rshift>,1,1,376853,395
Control_TS_16_B,3,test,R,29,1,620,350,R,1,<rshift>,1,1,377853,276
Control_TS_16_B,3,test,R,30,4,820,550,R,1,<rshift>,1,1,378853,313
Control_TS_16_B,3,test,R,31,4,820,550,R,1,<rshift>,1,1,379853,359
Control_TS_16_B,3,test,R,32,2,820,350,R,1,<rshift>,1,1,380853,307
Control_TS_16_B,3,test,R,33,4,820,550,R,1,<rshift>,1,1,381853,349
Control_TS_16_B,3,test,R,34,3,620,550,R,1,<rshift>,1,1,382853,343
Control_TS_16_B,3,test,R,35,1,620,350,R,1,<rshift>,1,1,383853,272
Control_TS_16_B,3,test,R,36,2,820,350,R,1,<rshift>,1,1,384853,319
Control_TS_16_B,3,test,R,37,2,820,350,P,0,<rshift>,1,0,385853,324
Control_TS_16_B,3,test,R,38,2,820,350,R,1,<rshift>,1,1,386853,418
Control_TS_16_B,3,test,R,39,3,620,550,R,1,<rshift>,1,1,387853,327
Control_TS_16_B,3,test,R,40,2,820,350,R,1,<rshift>,1,1,388853,307
Control_TS_16_B,3,test,R,41,4,820,550,R,1,<rshift>,1,1,389853,350
Control_TS_16_B,3,test,R,42,4,820,550,R,1,<rshift>,1,1,390853,348
Control_TS_16_B,3,test,R,43,3,620,550,P,0,<rshift>,1,0,391853,329
Control_TS_16_B,3,test,R,44,2,820,350,R,1,<rshift>,1,1,392853,301
Control_TS_16_B,3,test,R,45,2,820,350,R,1,<rshift>,1,1,393853,377
Control_TS_16_B,3,test,R,46,2,820,350,P,0,<rshift>,1,0,394853,320
Control_TS_16_B,3,test,R,47,4,820,550,P,0,NONE,0,1,395853,950
Control_TS_16_B,3,test,R,48,1,620,350,R,1,<rshift>,1,1,396853,291
Control_TS_16_B,3,test,R,49,1,620,350,R,1,<rshift>,1,1,397853,363
Control_TS_16_B,3,test,R,50,3,620,550,P,0,NONE,0,1,398853,950
Control_TS_16_B,3,test,R,51,1,620,350,R,1,<rshift>,1,1,399853,320
Control_TS_16_B,3,test,R,52,4,820,550,R,1,<rshift>,1,1,400853,333
Control_TS_16_B,3,test,R,53,3,620,550,R,1,<rshift>,1,1,401853,338
Control_TS_16_B,3,test,R,54,4,820,550,R,1,<rshift>,1,1,402853,326
Control_TS_16_B,3,test,R,55,3,620,550,R,1,<rshift>,1,1,403853,295
Control_TS_16_B,3,test,R,56,1,620,350,R,1,<rshift>,1,1,404853,292
Control_TS_16_B,3,test,R,57,1,620,350,R,1,<rshift>,1,1,405853,296
Control_TS_16_B,3,test,R,58,1,620,350,R,1,<rshift>,1,1,406853,328
Control_TS_16_B,3,test,R,59,1,620,350,R,1,<rshift>,1,1,407853,283
Control_TS_16_B,3,test,R,60,3,620,550,R,1,<rshift>,1,1,408853,292
Control_TS_16_B,3,test,R,61,1,620,350,P,0,<rshift>,1,0,409853,331
Control_TS_16_B,3,test,R,62,3,620,550,R,1,<rshift>,1,1,410853,369
Control_TS_16_B,3,test,R,63,2,820,350,P,0,<rshift>,1,0,411853,365
Control_TS_16_B,3,test,R,64,4,820,550,R,1,<rshift>,1,1,412853,365
Control_TS_16_B,3,test,R,65,4,820,550,R,1,<rshift>,1,1,413853,332
Control_TS_16_B,3,test,R,66,4,820,550,R,1,<rshift>,1,1,414853,386
Control_TS_16_B,3,test,R,67,4,820,550,R,1,<rshift>,1,1,415853,340
Control_TS_16_B,3,test,R,68,1,620,350,R,1,<rshift>,1,1,416853,336
Control_TS_16_B,3,test,R,69,1,620,350,R,1,<rshift>,1,1,417853,311
Control_TS_16_B,3,test,R,70,4,820,550,R,1,<rshift>,1,1,418853,257
Control_TS_16_B,3,test,R,71,3,620,550,R,1,<rshift>,1,1,419853,312
Control_TS_16_B,3,test,R,72,2,820,350,P,0,<rshift>,1,0,420853,300
Control_TS_16_B,3,test,R,73,4,820,550,R,1,<rshift>,1,1,421853,306
Control_TS_16_B,3,test,R,74,3,620,550,R,1,<rshift>,1,1,422853,313
Control_TS_16_B,3,test,R,75,4,820,550,R,1,<rshift>,1,1,423853,320
Control_TS_16_B,3,test,R,76,4,820,550,P,0,<rshift>,1,0,424853,317
Control_TS_16_B,3,test,R,77,4,820,550,P,0,NONE,0,1,425853,950
Control_TS_16_B,3,test,R,78,2,820,350,R,1,<rshift>,1,1,426853,405
Control_TS_16_B,3,test,R,79,3,620,550,R,1,<rshift>,1,1,427853,315
Control_TS_16_B,3,test,R,80,2,820,350,R,1,<rshift>,1,1,428853,314
Control_TS_16_B,3,test,R,81,4,820,550,R,1,<rshift>,1,1,429854,420
Control_TS_16_B,3,test,R,82,4,820,550,R,1,<rshift>,1,1,430853,307
Control_TS_16_B,3,test,R,83,3,620,550,R,1,<rshift>,1,1,431853,367
Control_TS_16_B,3,test,R,84,1,620,350,R,1,<rshift>,1,1,432853,303
Control_TS_16_B,3,test,R,85,4,820,550,R,1,<rshift>,1,1,433853,268
Control_TS_16_B,3,test,R,86,2,820,350,R,1,<rshift>,1,1,434853,274
Control_TS_16_B,3,test,R,87,4,820,550,R,1,<rshift>,1,1,435854,298
Control_TS_16_B,3,test,R,88,4,820,550,R,1,<rshift>,1,1,436853,278
Control_TS_16_B,3,test,R,89,1,620,350,R,1,<rshift>,1,1,437853,331
Control_TS_16_B,3,test,R,90,4,820,550,R,1,<rshift>,1,1,438853,299
Control_TS_16_B,3,test,R,91,2,820,350,R,1,<rshift>,1,1,439853,283
Control_TS_16_B,3,test,R,92,4,820,550,R,1,<rshift>,1,1,440853,271
Control_TS_16_B,3,test,R,93,1,620,350,R,1,<rshift>,1,1,441853,293
Control_TS_16_B,3,test,R,94,2,820,350,R,1,<rshift>,1,1,442853,268
Control_TS_16_B,3,test,R,95,4,820,550,R,1,<rshift>,1,1,443853,289
Control_TS_16_B,3,test,R,96,3,620,550,R,1,<rshift>,1,1,444853,301
Control_TS_16_B,3,test,R,97,1,620,350,R,1,<rshift>,1,1,445853,284
Control_TS_16_B,3,test,R,98,2,820,350,R,1,<rshift>,1,1,446853,267
Control_TS_16_B,3,test,R,99,2,820,350,P,0,NONE,0,1,447853,950
Control_TS_16_B,3,test,R,100,2,820,350,R,1,<rshift>,1,1,448853,264
Control_TS_16_B,3,test,R,101,3,620,550,P,0,<rshift>,1,0,449853,274
Control_TS_16_B,3,test,R,102,3,620,550,R,1,<rshift>,1,1,450853,420
Control_TS_16_B,3,test,R,103,3,620,550,R,1,<rshift>,1,1,451853,326
Control_TS_16_B,3,test,R,104,3,620,550,P,0,<rshift>,1,0,452853,294
Control_TS_16_B,3,test,R,105,4,820,550,R,1,<rshift>,1,1,453853,304
Control_TS_16_B,3,test,R,106,1,620,350,R,1,<rshift>,1,1,454853,294
Control_TS_16_B,3,test,R,107,1,620,350,R,1,<rshift>,1,1,455853,346
Control_TS_16_B,3,test,R,108,1,620,350,P,0,<rshift>,1,0,456853,311
Control_TS_16_B,3,test,R,109,3,620,550,R,1,<rshift>,1,1,457853,406
Control_TS_16_B,3,test,R,110,2,820,350,P,0,<rshift>,1,0,458853,354
Control_TS_16_B,3,test,R,111,2,820,350,P,0,NONE,0,1,459853,950
Control_TS_16_B,3,test,R,112,2,820,350,R,1,<rshift>,1,1,460853,412
Control_TS_16_B,3,test,R,113,2,820,350,R,1,<rshift>,1,1,461853,306
Control_TS_16_B,3,test,R,114,2,820,350,R,1,<rshift>,1,1,462853,273
Control_TS_16_B,3,test,R,115,3,620,550,R,1,<rshift>,1,1,463853,298
Control_TS_16_B,3,test,R,116,4,820,550,P,0,<rshift>,1,0,464853,270
Control_TS_16_B,3,test,R,117,1,620,350,R,1,<rshift>,1,1,465853,524
Control_TS_16_B,3,test,R,118,3,620,550,R,1,<rshift>,1,1,466853,296
Control_TS_16_B,3,test,R,119,4,820,550,R,1,<rshift>,1,1,467853,291
Control_TS_16_B,3,test,R,120,4,820,550,P,0,<rshift>,1,0,468853,323
Control_TS_16_B,3,test,R,121,1,620,350,R,1,<rshift>,1,1,469853,366
Control_TS_16_B,3,test,R,122,4,820,550,R,1,<rshift>,1,1,470853,275
Control_TS_16_B,3,test,R,123,3,620,550,R,1,<rshift>,1,1,471853,299
Control_TS_16_B,3,test,R,124,3,620,550,R,1,<rshift>,1,1,472853,335
Control_TS_16_B,3,test,R,125,2,820,350,R,1,<rshift>,1,1,473853,283
Control_TS_16_B,3,test,R,126,4,820,550,R,1,<rshift>,1,1,474853,240
Control_TS_16_B,3,test,R,127,3,620,550,R,1,<rshift>,1,1,475853,257
Control_TS_16_B,3,test,R,128,4,820,550,R,1,<rshift>,1,1,476853,281
Control_TS_16_B,3,test,R,129,4,820,550,R,1,<rshift>,1,1,477853,281
Control_TS_16_B,3,test,R,130,3,620,550,R,1,<rshift>,1,1,478853,294
Control_TS_16_B,3,test,R,131,3,620,550,R,1,<rshift>,1,1,479853,337
Control_TS_16_B,3,test,R,132,4,820,550,R,1,<rshift>,1,1,480853,258
Control_TS_16_B,3,test,R,133,1,620,350,P,0,<rshift>,1,0,481853,250
Control_TS_16_B,3,test,R,134,4,820,550,R,1,<rshift>,1,1,482853,239
Control_TS_16_B,3,test,R,135,2,820,350,R,1,<rshift>,1,1,483853,261
Control_TS_16_B,3,test,R,136,4,820,550,R,1,<rshift>,1,1,484853,253
Control_TS_16_B,3,test,R,137,4,820,550,R,1,<rshift>,1,1,485853,336
Control_TS_16_B,3,test,R,138,4,820,550,R,1,<rshift>,1,1,486853,324
Control_TS_16_B,3,test,R,139,4,820,550,R,1,<rshift>,1,1,487853,318
Control_TS_16_B,3,test,R,140,2,820,350,P,0,<rshift>,1,0,488853,239
Control_TS_16_B,3,test,R,141,3,620,550,P,0,<rshift>,1,0,489853,266
Control_TS_16_B,3,test,R,142,3,620,550,P,0,<rshift>,1,0,490853,297
Control_TS_16_B,3,test,R,143,3,620,550,R,1,<rshift>,1,1,491853,482
Control_TS_16_B,3,test,R,144,1,620,350,R,1,<rshift>,1,1,492853,295
Control_TS_16_B,3,test,R,145,1,620,350,R,1,<rshift>,1,1,493853,437
Control_TS_16_B,3,test,R,146,4,820,550,R,1,<rshift>,1,1,494853,294
Control_TS_16_B,3,test,R,147,2,820,350,R,1,<rshift>,1,1,495853,266
Control_TS_16_B,3,test,R,148,4,820,550,R,1,<rshift>,1,1,496853,290
Control_TS_16_B,3,test,R,149,4,820,550,R,1,<rshift>,1,1,497853,337
Control_TS_16_B,3,test,R,150,2,820,350,R,1,<rshift>,1,1,498853,379
Control_TS_16_B,3,test,R,151,2,820,350,P,0,<rshift>,1,0,499853,385
Control_TS_16_B,3,test,R,152,1,620,350,R,1,<rshift>,1,1,500853,330
Control_TS_16_B,3,test,R,153,2,820,350,R,1,<rshift>,1,1,501853,349
Control_TS_16_B,3,test,R,154,2,820,350,R,1,<rshift>,1,1,502853,300
Control_TS_16_B,3,test,R,155,4,820,550,P,0,<rshift>,1,0,503853,293
Control_TS_16_B,3,test,R,156,3,620,550,R,1,<rshift>,1,1,504853,341
Control_TS_16_B,3,test,R,157,4,820,550,R,1,<rshift>,1,1,505853,327
Control_TS_16_B,3,test,R,158,2,820,350,P,0,<rshift>,1,0,506853,269
Control_TS_16_B,3,test,R,159,2,820,350,P,0,NONE,0,1,507853,950
Control_TS_16_B,3,test,R,160,1,620,350,R,1,<rshift>,1,1,508853,248
Control_TS_16_B,3,test,R,161,2,820,350,R,1,<rshift>,1,1,509853,445
Control_TS_16_B,3,test,R,162,4,820,550,R,1,<rshift>,1,1,510853,275
Control_TS_16_B,3,test,R,163,3,620,550,R,1,<rshift>,1,1,511853,262
Control_TS_16_B,3,test,R,164,3,620,550,P,0,<rshift>,1,0,512853,349
Control_TS_16_B,3,test,R,165,3,620,550,P,0,NONE,0,1,513853,950
Control_TS_16_B,3,test,R,166,1,620,350,R,1,<rshift>,1,1,514853,315
Control_TS_16_B,3,test,R,167,3,620,550,P,0,<rshift>,1,0,515853,322
Control_TS_16_B,3,test,R,168,1,620,350,R,1,<rshift>,1,1,516853,317
Control_TS_16_B,3,test,R,169,4,820,550,R,1,<rshift>,1,1,517853,260
Control_TS_16_B,3,test,R,170,2,820,350,P,0,NONE,0,1,518853,950
Control_TS_16_B,3,test,R,171,2,820,350,R,1,<rshift>,1,1,519853,292
Control_TS_16_B,3,test,R,172,2,820,350,R,1,<rshift>,1,1,520853,289
Control_TS_16_B,3,test,R,173,2,820,350,P,0,<rshift>,1,0,521853,772
Control_TS_16_B,3,test,R,174,2,820,350,P,0,NONE,0,1,522853,950
Control_TS_16_B,3,test,R,175,4,820,550,R,1,<rshift>,1,1,523853,348
Control_TS_16_B,3,test,R,176,4,820,550,R,1,<rshift>,1,1,524853,376
Control_TS_16_B,3,test,R,177,2,820,350,P,0,NONE,0,1,525853,950
Control_TS_16_B,3,test,R,178,2,820,350,R,1,<rshift>,1,1,526853,398
Control_TS_16_B,3,test,R,179,3,620,550,R,1,<rshift>,1,1,527853,319
Control_TS_16_B,3,test,R,180,2,820,350,P,0,<rshift>,1,0,528853,298
Control_TS_16_B,3,test,R,181,2,820,350,R,1,<rshift>,1,1,529853,364
Control_TS_16_B,3,test,R,182,4,820,550,R,1,<rshift>,1,1,530853,291
Control_TS_16_B,3,test,R,183,3,620,550,R,1,<rshift>,1,1,531853,313
Control_TS_16_B,3,test,R,184,3,620,550,R,1,<rshift>,1,1,532853,365
Control_TS_16_B,3,test,R,185,4,820,550,R,1,<rshift>,1,1,533853,304
Control_TS_16_B,3,test,R,186,1,620,350,R,1,<rshift>,1,1,534853,298
Control_TS_16_B,3,test,R,187,4,820,550,R,1,<rshift>,1,1,535853,496
Control_TS_16_B,3,test,R,188,1,620,350,R,1,<rshift>,1,1,536853,302
Control_TS_16_B,3,test,R,189,2,820,350,R,1,<rshift>,1,1,537853,251
Control_TS_16_B,3,test,R,190,3,620,550,R,1,<rshift>,1,1,538853,262
Control_TS_16_B,3,test,R,191,1,620,350,R,1,<rshift>,1,1,539853,298
Control_TS_16_B,3,test,R,192,3,620,550,R,1,<rshift>,1,1,540853,289
Control_TS_16_B,3,test,R,193,2,820,350,P,0,<rshift>,1,0,541853,257
Control_TS_16_B,3,test,R,194,2,820,350,R,1,<rshift>,1,1,542853,279
Control_TS_16_B,3,test,R,195,1,620,350,R,1,<rshift>,1,1,543853,271
Control_TS_16_B,3,test,R,196,2,820,350,R,1,<rshift>,1,1,544853,327
Control_TS_16_B,3,test,R,197,2,820,350,R,1,<rshift>,1,1,545853,293
Control_TS_16_B,3,test,R,198,2,820,350,R,1,<rshift>,1,1,546853,265
Control_TS_16_B,3,test,R,199,1,620,350,P,0,<rshift>,1,0,547853,292
Control_TS_16_B,3,test,R,200,4,820,550,R,1,<rshift>,1,1,548853,324
Control_TS_16_B,3,test,R,201,3,620,550,R,1,<rshift>,1,1,549853,465
Control_TS_16_B,3,test,R,202,3,620,550,R,1,<rshift>,1,1,550853,340
Control_TS_16_B,3,test,R,203,2,820,350,P,0,<rshift>,1,0,551853,259
Control_TS_16_B,3,test,R,204,4,820,550,R,1,<rshift>,1,1,552853,313
Control_TS_16_B,3,test,R,205,2,820,350,P,0,NONE,0,1,553853,950
Control_TS_16_B,3,test,R,206,1,620,350,P,0,<rshift>,1,0,554853,332
Control_TS_16_B,3,test,R,207,2,820,350,P,0,NONE,0,1,555853,950
Control_TS_16_B,3,test,R,208,3,620,550,R,1,<rshift>,1,1,556853,280
Control_TS_16_B,3,test,R,209,1,620,350,R,1,<rshift>,1,1,557853,293
Control_TS_16_B,3,test,R,210,3,620,550,R,1,<rshift>,1,1,558853,311
Control_TS_16_B,3,test,R,211,3,620,550,R,1,<rshift>,1,1,559853,481
Control_TS_16_B,3,test,R,212,4,820,550,R,1,<rshift>,1,1,560854,326
Control_TS_16_B,3,test,R,213,1,620,350,R,1,<rshift>,1,1,561853,253
Control_TS_16_B,3,test,R,214,1,620,350,R,1,<rshift>,1,1,562853,325
Control_TS_16_B,3,test,R,215,3,620,550,P,0,<rshift>,1,0,563853,267
Control_TS_16_B,3,test,R,216,4,820,550,R,1,<rshift>,1,1,564853,571
Control_TS_16_B,3,test,R,217,2,820,350,R,1,<rshift>,1,1,565853,435
Control_TS_16_B,3,test,R,218,1,620,350,R,1,<rshift>,1,1,566853,327
Control_TS_16_B,3,test,R,219,3,620,550,R,1,<rshift>,1,1,567853,287
Control_TS_16_B,3,test,R,220,3,620,550,P,0,<rshift>,1,0,568853,331
Control_TS_16_B,3,test,R,221,2,820,350,R,1,<rshift>,1,1,569853,423
Control_TS_16_B,3,test,R,222,3,620,550,P,0,NONE,0,1,570853,950
Control_TS_16_B,3,test,R,223,3,620,550,R,1,<rshift>,1,1,571853,483
Control_TS_16_B,3,test,R,224,3,620,550,R,1,<rshift>,1,1,572853,351
Control_TS_16_B,3,test,R,225,3,620,550,R,1,<rshift>,1,1,573853,261
Control_TS_16_B,3,test,R,226,2,820,350,R,1,<rshift>,1,1,574853,239
Control_TS_16_B,3,test,R,227,1,620,350,R,1,<rshift>,1,1,575853,420
Control_TS_16_B,3,test,R,228,1,620,350,R,1,<rshift>,1,1,576853,324
Control_TS_16_B,3,test,R,229,1,620,350,R,1,<rshift>,1,1,577853,345
Control_TS_16_B,3,test,R,230,4,820,550,R,1,<rshift>,1,1,578853,249
Control_TS_16_B,3,test,R,231,1,620,350,R,1,<rshift>,1,1,579853,258
Control_TS_16_B,3,test,R,232,4,820,550,R,1,<rshift>,1,1,580853,262
Control_TS_16_B,3,test,R,233,2,820,350,R,1,<rshift>,1,1,581853,294
Control_TS_16_B,3,test,R,234,2,820,350,R,1,<rshift>,1,1,582853,322
Control_TS_16_B,3,test,R,235,3,620,550,R,1,<rshift>,1,1,583853,281
Control_TS_16_B,3,test,R,236,1,620,350,R,1,<rshift>,1,1,584853,267
Control_TS_16_B,3,test,R,237,2,820,350,R,1,<rshift>,1,1,585853,250
Control_TS_16_B,3,test,R,238,4,820,550,R,1,<rshift>,1,1,586853,272
Control_TS_16_B,3,test,R,239,2,820,350,R,1,<rshift>,1,1,587853,313
Control_TS_16_B,3,test,R,240,1,620,350,P,0,<rshift>,1,0,588853,254
Control_TS_16_B,3,test,R,241,1,620,350,R,1,<rshift>,1,1,589853,313
Control_TS_16_B,3,test,R,242,3,620,550,P,0,<rshift>,1,0,590853,359
Control_TS_16_B,3,test,R,243,2,820,350,R,1,NONE,0,0,591853,950
Control_TS_16_B,3,test,R,244,1,620,350,R,1,<rshift>,1,1,592853,300
Control_TS_16_B,3,test,R,245,4,820,550,R,1,<rshift>,1,1,593854,291
Control_TS_16_B,3,test,R,246,4,820,550,R,1,<rshift>,1,1,594853,300
Control_TS_16_B,3,test,R,247,2,820,350,P,0,<rshift>,1,0,595853,273
Control_TS_16_B,3,test,R,248,1,620,350,P,0,<rshift>,1,0,596853,266
Control_TS_16_B,3,test,R,249,4,820,550,R,1,<rshift>,1,1,597854,332
Control_TS_16_B,3,test,R,250,2,820,350,R,1,<rshift>,1,1,598853,429
Control_TS_16_B,3,test,R,251,2,820,350,R,1,<rshift>,1,1,599853,323
Control_TS_16_B,3,test,R,252,2,820,350,R,1,<rshift>,1,1,600853,304
Control_TS_16_B,3,test,R,253,2,820,350,R,1,<rshift>,1,1,601854,329
Control_TS_16_B,3,test,R,254,4,820,550,R,1,<rshift>,1,1,602853,453
Control_TS_16_B,3,test,R,255,1,620,350,R,1,<rshift>,1,1,603853,312
Control_TS_16_B,3,test,R,256,4,820,550,R,1,<rshift>,1,1,604853,281
Control_TS_16_B,3,test,R,257,4,820,550,P,0,<rshift>,1,0,605853,316
Control_TS_16_B,3,test,R,258,2,820,350,R,1,<rshift>,1,1,606853,371
Control_TS_16_B,3,test,R,259,3,620,550,R,1,<rshift>,1,1,607854,496
Control_TS_16_B,3,test,R,260,4,820,550,R,1,<rshift>,1,1,608853,319
Control_TS_16_B,3,test,R,261,4,820,550,P,0,<rshift>,1,0,609853,351
Control_TS_16_B,3,test,R,262,1,620,350,P,0,<rshift>,1,0,610854,267
Control_TS_16_B,3,test,R,263,1,620,350,R,1,<rshift>,1,1,611853,373
Control_TS_16_B,3,test,R,264,4,820,550,R,1,<rshift>,1,1,612853,325
Control_TS_16_B,3,test,R,265,4,820,550,R,1,<rshift>,1,1,613853,420
Control_TS_16_B,3,test,R,266,4,820,550,R,1,<rshift>,1,1,614854,331
Control_TS_16_B,3,test,R,267,2,820,350,R,1,<rshift>,1,1,615853,337
Control_TS_16_B,3,test,R,268,1,620,350,R,1,<rshift>,1,1,616853,365
Control_TS_16_B,3,test,R,269,1,620,350,R,1,<rshift>,1,1,617853,531
Control_TS_16_B,3,test,R,270,1,620,350,R,1,<rshift>,1,1,618853,406
Control_TS_16_B,3,test,R,271,4,820,550,R,1,<rshift>,1,1,619853,443
Control_TS_16_B,3,test,R,272,3,620,550,R,1,<rshift>,1,1,620853,487
Control_TS_16_B,3,test,R,273,1,620,350,R,1,<rshift>,1,1,621853,353
Control_TS_16_B,3,test,R,274,2,820,350,P,0,<rshift>,1,0,622853,271
Control_TS_16_B,3,test,R,275,4,820,550,P,0,<rshift>,1,0,623853,385
Control_TS_16_B,3,test,R,276,3,620,550,R,1,<rshift>,1,1,624853,454
Control_TS_16_B,3,test,R,277,4,820,550,R,1,<rshift>,1,1,625853,476
Control_TS_16_B,3,test,R,278,4,820,550,R,1,<rshift>,1,1,626853,339
Control_TS_16_B,3,test,R,279,1,620,350,P,0,<rshift>,1,0,627853,343
Control_TS_16_B,3,test,R,280,1,620,350,R,1,<rshift>,1,1,628853,442
Control_TS_16_B,3,test,R,281,3,620,550,R,1,<rshift>,1,1,629853,348
Control_TS_16_B,3,test,R,282,1,620,350,R,1,<rshift>,1,1,630853,351
Control_TS_16_B,3,test,R,283,1,620,350,R,1,<rshift>,1,1,631853,297
Control_TS_16_B,3,test,R,284,4,820,550,R,1,<rshift>,1,1,632853,278
Control_TS_16_B,3,test,R,285,2,820,350,R,1,<rshift>,1,1,633853,313
Control_TS_16_B,3,test,R,286,2,820,350,R,1,<rshift>,1,1,634854,478
Control_TS_16_B,3,test,R,287,3,620,550,P,0,<rshift>,1,0,635854,363
Control_TS_16_B,3,test,R,288,1,620,350,R,1,<rshift>,1,1,636853,555
Control_TS_16_B,3,test,R,289,1,620,350,P,0,<rshift>,1,0,637853,358
Control_TS_16_B,3,test,R,290,2,820,350,R,1,<rshift>,1,1,638853,304
Control_TS_16_B,3,test,R,291,1,620,350,R,1,<rshift>,1,1,639853,301
Control_TS_16_B,3,test,R,292,1,620,350,P,0,<rshift>,1,0,640853,328
Control_TS_16_B,3,test,R,293,4,820,550,R,1,<rshift>,1,1,641853,326
Control_TS_16_B,3,test,R,294,4,820,550,R,1,<rshift>,1,1,642853,306
Control_TS_16_B,3,test,R,295,1,620,350,R,1,<rshift>,1,1,643853,477
Control_TS_16_B,3,test,R,296,2,820,350,R,1,<rshift>,1,1,644853,320
Control_TS_16_B,3,test,R,297,1,620,350,R,1,<rshift>,1,1,645853,269
Control_TS_16_B,3,test,R,298,4,820,550,R,1,<rshift>,1,1,646853,267
Control_TS_16_B,3,test,R,299,1,620,350,R,1,<rshift>,1,1,647853,361
Control_TS_16_B,3,test,R,300,2,820,350,R,1,<rshift>,1,1,648853,252
