subnum,block,type,correctresponse,trial,choice,x,y,stim,present,response,responded,corr,starttime,rt
Control_TS_1B,0,practice,P,1,3,620,550,P,1,NONE,0,0,10858,950
Control_TS_1B,0,practice,P,2,2,820,350,P,1,NONE,0,0,12855,950
Control_TS_1B,0,practice,P,3,2,820,350,P,1,NONE,0,0,14851,950
Control_TS_1B,0,practice,P,4,1,620,350,R,0,NONE,0,1,16846,950
Control_TS_1B,0,practice,P,5,3,620,550,P,1,NONE,0,0,17811,950
Control_TS_1B,0,practice,P,6,4,820,550,P,1,NONE,0,0,19806,950
Control_TS_1B,0,practice,P,7,3,620,550,P,1,<rshift>,1,1,21801,372
Control_TS_1B,0,practice,P,8,3,620,550,P,1,NONE,0,0,22203,950
Control_TS_1B,0,practice,P,9,1,620,350,R,0,<rshift>,1,0,24200,394
Control_TS_1B,0,practice,P,10,3,620,550,P,1,NONE,0,0,25655,951
Control_TS_1B,1,test,P,1,2,820,350,P,1,<rshift>,1,1,30694,617
Control_TS_1B,1,test,P,2,1,620,350,P,1,<rshift>,1,1,31693,437
Control_TS_1B,1,test,P,3,2,820,350,P,1,<rshift>,1,1,32693,355
Control_TS_1B,1,test,P,4,4,820,550,P,1,<rshift>,1,1,33693,411
Control_TS_1B,1,test,P,5,1,620,350,P,1,<rshift>,1,1,34694,342
Control_TS_1B,1,test,P,6,1,620,350,P,1,<rshift>,1,1,35694,341
Control_TS_1B,1,test,P,7,2,820,350,P,1,<rshift>,1,1,36694,401
Control_TS_1B,1,test,P,8,2,820,350,P,1,<rshift>,1,1,37694,326
Control_TS_1B,1,test,P,9,2,820,350,P,1,<rshift>,1,1,38694,315
Control_TS_1B,1,test,P,10,4,820,550,P,1,<rshift>,1,1,39694,298
Control_TS_1B,1,test,P,11,1,620,350,R,0,<rshift>,1,0,40694,244
Control_TS_1B,1,test,P,12,4,820,550,R,0,NONE,0,1,41693,951
Control_TS_1B,1,test,P,13,1,620,350,P,1,<rshift>,1,1,42693,310
Control_TS_1B,1,test,P,14,4,820,550,P,1,<rshift>,1,1,43693,363
Control_TS_1B,1,test,P,15,1,620,350,P,1,<rshift>,1,1,44694,269
Control_TS_1B,1,test,P,16,2,820,350,P,1,<rshift>,1,1,45694,363
Control_TS_1B,1,test,P,17,2,820,350,R,0,NONE,0,1,46694,950
Control_TS_1B,1,test,P,18,3,620,550,P,1,<rshift>,1,1,47693,409
Control_TS_1B,1,test,P,19,3,620,550,P,1,<rshift>,1,1,48693,342
Control_TS_1B,1,test,P,20,2,820,350,P,1,<rshift>,1,1,49693,452
Control_TS_1B,1,test,P,21,2,820,350,P,1,<rshift>,1,1,50694,355
Control_TS_1B,1,test,P,22,1,620,350,R,0,<rshift>,1,0,51694,332
Control_TS_1B,1,test,P,23,1,620,350,P,1,NONE,0,0,52694,950
Control_TS_1B,1,test,P,24,4,820,550,P,1,<rshift>,1,1,53693,432
Control_TS_1B,1,test,P,25,1,620,350,P,1,<rshift>,1,1,54694,315
Control_TS_1B,1,test,P,26,1,620,350,P,1,<rshift>,1,1,55694,362
Control_TS_1B,1,test,P,27,4,820,550,P,1,<rshift>,1,1,56693,286
Control_TS_1B,1,test,P,28,1,620,350,P,1,<rshift>,1,1,57694,391
Control_TS_1B,1,test,P,29,4,820,550,R,0,<rshift>,1,0,58694,295
Control_TS_1B,1,test,P,30,1,620,350,P,1,<rshift>,1,1,59694,545
Control_TS_1B,1,test,P,31,1,620,350,P,1,<rshift>,1,1,60694,397
Control_TS_1B,1,test,P,32,2,820,350,P,1,<rshift>,1,1,61694,345
Control_TS_1B,1,test,P,33,2,820,350,P,1,<rshift>,1,1,62694,334
Control_TS_1B,1,test,P,34,3,620,550,P,1,<rshift>,1,1,63694,343
Control_TS_1B,1,test,P,35,4,820,550,P,1,<rshift>,1,1,64693,416
Control_TS_1B,1,test,P,36,3,620,550,R,0,<rshift>,1,0,65694,386
Control_TS_1B,1,test,P,37,3,620,550,P,1,<rshift>,1,1,66694,470
Control_TS_1B,1,test,P,38,4,820,550,R,0,NONE,0,1,67693,951
Control_TS_1B,1,test,P,39,4,820,550,P,1,<rshift>,1,1,68693,522
Control_TS_1B,1,test,P,40,3,620,550,P,1,<rshift>,1,1,69693,376
Control_TS_1B,1,test,P,41,2,820,350,R,0,NONE,0,1,70694,950
Control_TS_1B,1,test,P,42,1,620,350,P,1,<rshift>,1,1,71694,352
Control_TS_1B,1,test,P,43,4,820,550,P,1,<rshift>,1,1,72694,359
Control_TS_1B,1,test,P,44,1,620,350,R,0,NONE,0,1,73694,950
Control_TS_1B,1,test,P,45,2,820,350,P,1,<rshift>,1,1,74694,323
Control_TS_1B,1,test,P,46,2,820,350,P,1,<rshift>,1,1,75693,367
Control_TS_1B,1,test,P,47,3,620,550,P,1,<rshift>,1,1,76693,365
Control_TS_1B,1,test,P,48,3,620,550,P,1,<rshift>,1,1,77693,392
Control_TS_1B,1,test,P,49,1,620,350,P,1,<rshift>,1,1,78694,391
Control_TS_1B,1,test,P,50,2,820,350,P,1,<rshift>,1,1,79693,319
Control_TS_1B,1,test,P,51,3,620,550,P,1,<rshift>,1,1,80693,315
Control_TS_1B,1,test,P,52,3,620,550,P,1,<rshift>,1,1,81694,339
Control_TS_1B,1,test,P,53,1,620,350,P,1,<rshift>,1,1,82694,499
Control_TS_1B,1,test,P,54,1,620,350,P,1,<rshift>,1,1,83693,433
Control_TS_1B,1,test,P,55,2,820,350,P,1,<rshift>,1,1,84693,569
Control_TS_1B,1,test,P,56,2,820,350,P,1,<rshift>,1,1,85694,551
Control_TS_1B,1,test,P,57,3,620,550,P,1,<rshift>,1,1,86694,378
Control_TS_1B,1,test,P,58,3,620,550,P,1,<rshift>,1,1,87694,422
Control_TS_1B,1,test,P,59,3,620,550,P,1,<rshift>,1,1,88694,409
Control_TS_1B,1,test,P,60,4,820,550,P,1,<rshift>,1,1,89694,349
Control_TS_1B,1,test,P,61,4,820,550,P,1,<rshift>,1,1,90694,330
Control_TS_1B,1,test,P,62,4,820,550,P,1,<rshift>,1,1,91694,319
Control_TS_1B,1,test,P,63,3,620,550,P,1,<rshift>,1,1,92694,354
Control_TS_1B,1,test,P,64,1,620,350,P,1,<rshift>,1,1,93694,323
Control_TS_1B,1,test,P,65,2,820,350,P,1,<rshift>,1,1,94694,266
Control_TS_1B,1,test,P,66,4,820,550,P,1,<rshift>,1,1,95694,327
Control_TS_1B,1,test,P,67,4,820,550,P,1,<rshift>,1,1,96693,497
Control_TS_1B,1,test,P,68,3,620,550,R,0,<rshift>,1,0,97693,321
Control_TS_1B,1,test,P,69,3,620,550,R,0,NONE,0,1,98694,950
Control_TS_1B,1,test,P,70,3,620,550,R,0,NONE,0,1,99693,950
Control_TS_1B,1,test,P,71,4,820,550,P,1,<rshift>,1,1,100693,353
Control_TS_1B,1,test,P,72,4,820,550,P,1,<rshift>,1,1,101693,343
Control_TS_1B,1,test,P,73,1,620,350,R,0,<rshift>,1,0,102693,359
Control_TS_1B,1,test,P,74,4,820,550,P,1,<rshift>,1,1,103693,281
Control_TS_1B,1,test,P,75,1,620,350,P,1,<rshift>,1,1,104693,353
Control_TS_1B,1,test,P,76,1,620,350,P,1,<rshift>,1,1,105694,414
Control_TS_1B,1,test,P,77,3,620,550,R,0,NONE,0,1,106693,950
Control_TS_1B,1,test,P,78,4,820,550,P,1,<rshift>,1,1,107693,361
Control_TS_1B,1,test,P,79,2,820,350,P,1,<rshift>,1,1,108693,413
Control_TS_1B,1,test,P,80,1,620,350,P,1,<rshift>,1,1,109693,322
Control_TS_1B,1,test,P,81,3,620,550,P,1,<rshift>,1,1,110693,300
Control_TS_1B,1,test,P,82,4,820,550,P,1,<rshift>,1,1,111693,347
Control_TS_1B,1,test,P,83,1,620,350,P,1,<rshift>,1,1,112694,462
Control_TS_1B,1,test,P,84,3,620,550,R,0,NONE,0,1,113694,950
Control_TS_1B,1,test,P,85,2,820,350,R,0,<rshift>,1,0,114693,301
Control_TS_1B,1,test,P,86,2,820,350,P,1,<rshift>,1,1,115693,700
Control_TS_1B,1,test,P,87,1,620,350,R,0,NONE,0,1,116693,950
Control_TS_1B,1,test,P,88,3,620,550,P,1,<rshift>,1,1,117693,406
Control_TS_1B,1,test,P,89,1,620,350,P,1,<rshift>,1,1,118693,335
Control_TS_1B,1,test,P,90,2,820,350,P,1,<rshift>,1,1,119694,343
Control_TS_1B,1,test,P,91,3,620,550,P,1,<rshift>,1,1,120693,497
Control_TS_1B,1,test,P,92,3,620,550,R,0,NONE,0,1,121694,950
Control_TS_1B,1,test,P,93,4,820,550,R,0,NONE,0,1,122694,950
Control_TS_1B,1,test,P,94,2,820,350,P,1,<rshift>,1,1,123693,413
Control_TS_1B,1,test,P,95,3,620,550,P,1,<rshift>,1,1,124694,490
Control_TS_1B,1,test,P,96,4,820,550,P,1,<rshift>,1,1,125694,445
Control_TS_1B,1,test,P,97,2,820,350,P,1,<rshift>,1,1,126693,474
Control_TS_1B,1,test,P,98,3,620,550,P,1,<rshift>,1,1,127694,424
Control_TS_1B,1,test,P,99,1,620,350,P,1,<rshift>,1,1,128694,388
Control_TS_1B,1,test,P,100,3,620,550,P,1,<rshift>,1,1,129693,366
Control_TS_1B,1,test,P,101,4,820,550,R,0,NONE,0,1,130693,950
Control_TS_1B,1,test,P,102,3,620,550,P,1,<rshift>,1,1,131693,348
Control_TS_1B,1,test,P,103,2,820,350,P,1,<rshift>,1,1,132693,386
Control_TS_1B,1,test,P,104,2,820,350,P,1,<rshift>,1,1,133693,366
Control_TS_1B,1,test,P,105,4,820,550,P,1,<rshift>,1,1,134694,698
Control_TS_1B,1,test,P,106,1,620,350,P,1,<rshift>,1,1,135694,369
Control_TS_1B,1,test,P,107,3,620,550,P,1,<rshift>,1,1,136694,320
Control_TS_1B,1,test,P,108,1,620,350,P,1,<rshift>,1,1,137694,338
Control_TS_1B,1,test,P,109,1,620,350,P,1,<rshift>,1,1,138694,359
Control_TS_1B,1,test,P,110,2,820,350,P,1,<rshift>,1,1,139694,292
Control_TS_1B,1,test,P,111,1,620,350,P,1,<rshift>,1,1,140694,263
Control_TS_1B,1,test,P,112,3,620,550,P,1,<rshift>,1,1,141694,287
Control_TS_1B,1,test,P,113,1,620,350,P,1,<rshift>,1,1,142694,375
Control_TS_1B,1,test,P,114,4,820,550,R,0,<rshift>,1,0,143694,297
Control_TS_1B,1,test,P,115,4,820,550,P,1,<rshift>,1,1,144694,529
Control_TS_1B,1,test,P,116,2,820,350,P,1,<rshift>,1,1,145693,466
Control_TS_1B,1,test,P,117,3,620,550,P,1,<rshift>,1,1,146694,435
Control_TS_1B,1,test,P,118,2,820,350,P,1,<rshift>,1,1,147693,410
Control_TS_1B,1,test,P,119,4,820,550,P,1,<rshift>,1,1,148693,357
Control_TS_1B,1,test,P,120,3,620,550,P,1,<rshift>,1,1,149694,348
Control_TS_1B,1,test,P,121,1,620,350,R,0,NONE,0,1,150694,950
Control_TS_1B,1,test,P,122,2,820,350,P,1,<rshift>,1,1,151693,299
Control_TS_1B,1,test,P,123,4,820,550,P,1,<rshift>,1,1,152694,356
Control_TS_1B,1,test,P,124,2,820,350,P,1,<rshift>,1,1,153693,351
Control_TS_1B,1,test,P,125,3,620,550,P,1,<rshift>,1,1,154694,366
Control_TS_1B,1,test,P,126,1,620,350,R,0,NONE,0,1,155694,950
Control_TS_1B,1,test,P,127,2,820,350,P,1,<rshift>,1,1,156693,310
Control_TS_1B,1,test,P,128,4,820,550,P,1,<rshift>,1,1,157694,434
Control_TS_1B,1,test,P,129,3,620,550,P,1,<rshift>,1,1,158694,297
Control_TS_1B,1,test,P,130,4,820,550,R,0,NONE,0,1,159693,951
Control_TS_1B,1,test,P,131,1,620,350,P,1,<rshift>,1,1,160693,321
Control_TS_1B,1,test,P,132,2,820,350,P,1,<rshift>,1,1,161694,279
Control_TS_1B,1,test,P,133,2,820,350,P,1,<rshift>,1,1,162694,381
Control_TS_1B,1,test,P,134,4,820,550,R,0,<rshift>,1,0,163694,343
Control_TS_1B,1,test,P,135,3,620,550,P,1,<rshift>,1,1,164694,410
Control_TS_1B,1,test,P,136,2,820,350,P,1,<rshift>,1,1,165694,399
Control_TS_1B,1,test,P,137,2,820,350,R,0,NONE,0,1,166694,950
Control_TS_1B,1,test,P,138,4,820,550,P,1,<rshift>,1,1,167693,304
Control_TS_1B,1,test,P,139,2,820,350,P,1,<rshift>,1,1,168693,350
Control_TS_1B,1,test,P,140,2,820,350,P,1,<rshift>,1,1,169694,380
Control_TS_1B,1,test,P,141,3,620,550,P,1,<rshift>,1,1,170693,375
Control_TS_1B,1,test,P,142,1,620,350,R,0,NONE,0,1,171694,950
Control_TS_1B,1,test,P,143,3,620,550,R,0,NONE,0,1,172693,950
Control_TS_1B,1,test,P,144,2,820,350,R,0,NONE,0,1,173693,951
Control_TS_1B,1,test,P,145,3,620,550,R,0,<rshift>,1,0,174694,390
Control_TS_1B,1,test,P,146,1,620,350,P,1,<rshift>,1,1,175694,345
Control_TS_1B,1,test,P,147,4,820,550,P,1,<rshift>,1,1,176694,402
Control_TS_1B,1,test,P,148,4,820,550,P,1,NONE,0,0,177694,950
Control_TS_1B,1,test,P,149,3,620,550,R,0,NONE,0,1,178693,950
Control_TS_1B,1,test,P,150,1,620,350,P,1,<rshift>,1,1,179694,348
Control_TS_1B,1,test,P,151,2,820,350,P,1,<rshift>,1,1,180693,369
Control_TS_1B,1,test,P,152,1,620,350,P,1,<rshift>,1,1,181693,390
Control_TS_1B,1,test,P,153,2,820,350,R,0,NONE,0,1,182694,950
Control_TS_1B,1,test,P,154,3,620,550,P,1,<rshift>,1,1,183693,368
Control_TS_1B,1,test,P,155,4,820,550,P,1,<rshift>,1,1,184694,443
Control_TS_1B,1,test,P,156,3,620,550,P,1,<rshift>,1,1,185693,400
Control_TS_1B,1,test,P,157,4,820,550,R,0,NONE,0,1,186694,950
Control_TS_1B,1,test,P,158,3,620,550,R,0,NONE,0,1,187693,950
Control_TS_1B,1,test,P,159,3,620,550,R,0,NONE,0,1,188693,950
Control_TS_1B,1,test,P,160,4,820,550,R,0,NONE,0,1,189693,950
Control_TS_1B,1,test,P,161,3,620,550,P,1,<rshift>,1,1,190693,463
Control_TS_1B,1,test,P,162,2,820,350,P,1,<rshift>,1,1,191694,410
Control_TS_1B,1,test,P,163,2,820,350,P,1,<rshift>,1,1,192694,402
Control_TS_1B,1,test,P,164,4,820,550,P,1,<rshift>,1,1,193694,359
Control_TS_1B,1,test,P,165,3,620,550,P,1,<rshift>,1,1,194694,393
Control_TS_1B,1,test,P,166,4,820,550,P,1,<rshift>,1,1,195694,374
Control_TS_1B,1,test,P,167,3,620,550,P,1,<rshift>,1,1,196694,324
Control_TS_1B,1,test,P,168,1,620,350,P,1,<rshift>,1,1,197694,402
Control_TS_1B,1,test,P,169,3,620,550,P,1,<rshift>,1,1,198693,355
Control_TS_1B,1,test,P,170,2,820,350,P,1,<rshift>,1,1,199693,326
Control_TS_1B,1,test,P,171,3,620,550,P,1,<rshift>,1,1,200694,393
Control_TS_1B,1,test,P,172,1,620,350,P,1,<rshift>,1,1,201693,380
Control_TS_1B,1,test,P,173,3,620,550,P,1,<rshift>,1,1,202694,392
Control_TS_1B,1,test,P,174,3,620,550,P,1,<rshift>,1,1,203694,404
Control_TS_1B,1,test,P,175,4,820,550,R,0,NONE,0,1,204694,950
Control_TS_1B,1,test,P,176,4,820,550,P,1,<rshift>,1,1,205693,487
Control_TS_1B,1,test,P,177,2,820,350,P,1,<rshift>,1,1,206694,388
Control_TS_1B,1,test,P,178,2,820,350,P,1,<rshift>,1,1,207694,371
Control_TS_1B,1,test,P,179,2,820,350,R,0,<rshift>,1,0,208694,311
Control_TS_1B,1,test,P,180,2,820,350,P,1,NONE,0,0,209693,950
Control_TS_1B,1,test,P,181,4,820,550,P,1,<rshift>,1,1,210693,452
Control_TS_1B,1,test,P,182,3,620,550,R,0,<rshift>,1,0,211694,491
Control_TS_1B,1,test,P,183,2,820,350,R,0,<rshift>,1,0,212694,259
Control_TS_1B,1,test,P,184,4,820,550,R,0,NONE,0,1,213694,950
Control_TS_1B,1,test,P,185,3,620,550,P,1,<rshift>,1,1,214693,459
Control_TS_1B,1,test,P,186,3,620,550,P,1,<rshift>,1,1,215694,452
Control_TS_1B,1,test,P,187,2,820,350,P,1,<rshift>,1,1,216693,351
Control_TS_1B,1,test,P,188,4,820,550,P,1,<rshift>,1,1,217694,409
Control_TS_1B,1,test,P,189,2,820,350,P,1,<rshift>,1,1,218694,348
Control_TS_1B,1,test,P,190,3,620,550,R,0,<rshift>,1,0,219694,338
Control_TS_1B,1,test,P,191,2,820,350,P,1,<rshift>,1,1,220693,302
Control_TS_1B,1,test,P,192,4,820,550,P,1,<rshift>,1,1,221694,443
Control_TS_1B,1,test,P,193,4,820,550,P,1,<rshift>,1,1,222693,440
Control_TS_1B,1,test,P,194,4,820,550,P,1,<rshift>,1,1,223694,357
Control_TS_1B,1,test,P,195,2,820,350,P,1,<rshift>,1,1,224694,399
Control_TS_1B,1,test,P,196,4,820,550,P,1,<rshift>,1,1,225694,417
Control_TS_1B,1,test,P,197,1,620,350,P,1,<rshift>,1,1,226694,297
Control_TS_1B,1,test,P,198,2,820,350,R,0,<rshift>,1,0,227694,367
Control_TS_1B,1,test,P,199,3,620,550,P,1,<rshift>,1,1,228694,351
Control_TS_1B,1,test,P,200,3,620,550,P,1,<rshift>,1,1,229693,414
Control_TS_1B,1,test,P,201,3,620,550,P,1,<rshift>,1,1,230693,396
Control_TS_1B,1,test,P,202,4,820,550,P,1,<rshift>,1,1,231694,330
Control_TS_1B,1,test,P,203,1,620,350,P,1,<rshift>,1,1,232693,583
Control_TS_1B,1,test,P,204,1,620,350,P,1,<rshift>,1,1,233694,469
Control_TS_1B,1,test,P,205,1,620,350,P,1,<rshift>,1,1,234693,394
Control_TS_1B,1,test,P,206,2,820,350,P,1,<rshift>,1,1,235694,463
Control_TS_1B,1,test,P,207,4,820,550,P,1,<rshift>,1,1,236693,459
Control_TS_1B,1,test,P,208,3,620,550,R,0,<rshift>,1,0,237694,499
Control_TS_1B,1,test,P,209,3,620,550,P,1,<rshift>,1,1,238693,528
Control_TS_1B,1,test,P,210,2,820,350,P,1,<rshift>,1,1,239694,560
Control_TS_1B,1,test,P,211,1,620,350,P,1,<rshift>,1,1,240693,413
Control_TS_1B,1,test,P,212,3,620,550,P,1,<rshift>,1,1,241694,418
Control_TS_1B,1,test,P,213,1,620,350,P,1,<rshift>,1,1,242694,438
Control_TS_1B,1,test,P,214,3,620,550,P,1,<rshift>,1,1,243694,394
Control_TS_1B,1,test,P,215,1,620,350,P,1,<rshift>,1,1,244693,346
Control_TS_1B,1,test,P,216,3,620,550,P,1,<rshift>,1,1,245694,515
Control_TS_1B,1,test,P,217,2,820,350,P,1,<rshift>,1,1,246693,500
Control_TS_1B,1,test,P,218,4,820,550,P,1,<rshift>,1,1,247694,460
Control_TS_1B,1,test,P,219,1,620,350,P,1,<rshift>,1,1,248694,302
Control_TS_1B,1,test,P,220,1,620,350,P,1,<rshift>,1,1,249694,345
Control_TS_1B,1,test,P,221,2,820,350,R,0,<rshift>,1,0,250694,292
Control_TS_1B,1,test,P,222,4,820,550,P,1,<rshift>,1,1,251694,284
Control_TS_1B,1,test,P,223,4,820,550,P,1,<rshift>,1,1,252694,453
Control_TS_1B,1,test,P,224,3,620,550,P,1,<rshift>,1,1,253694,357
Control_TS_1B,1,test,P,225,3,620,550,P,1,<rshift>,1,1,254693,516
Control_TS_1B,1,test,P,226,2,820,350,P,1,<rshift>,1,1,255693,417
Control_TS_1B,1,test,P,227,3,620,550,P,1,<rshift>,1,1,256694,385
Control_TS_1B,1,test,P,228,3,620,550,P,1,<rshift>,1,1,257694,345
Control_TS_1B,1,test,P,229,4,820,550,P,1,<rshift>,1,1,258693,305
Control_TS_1B,1,test,P,230,2,820,350,R,0,NONE,0,1,259694,950
Control_TS_1B,1,test,P,231,3,620,550,P,1,<rshift>,1,1,260693,374
Control_TS_1B,1,test,P,232,1,620,350,P,1,<rshift>,1,1,261694,349
Control_TS_1B,1,test,P,233,2,820,350,P,1,<rshift>,1,1,262694,358
Control_TS_1B,1,test,P,234,3,620,550,P,1,<rshift>,1,1,263694,321
Control_TS_1B,1,test,P,235,2,820,350,P,1,<rshift>,1,1,264694,392
Control_TS_1B,1,test,P,236,3,620,550,R,0,<rshift>,1,0,265694,389
Control_TS_1B,1,test,P,237,4,820,550,R,0,<rshift>,1,0,266694,331
Control_TS_1B,1,test,P,238,2,820,350,P,1,<rshift>,1,1,267693,310
Control_TS_1B,1,test,P,239,3,620,550,P,1,<rshift>,1,1,268694,400
Control_TS_1B,1,test,P,240,3,620,550,R,0,NONE,0,1,269693,950
Control_TS_1B,1,test,P,241,4,820,550,P,1,<rshift>,1,1,270694,408
Control_TS_1B,1,test,P,242,1,620,350,P,1,<rshift>,1,1,271694,329
Control_TS_1B,1,test,P,243,2,820,350,R,0,NONE,0,1,272694,950
Control_TS_1B,1,test,P,244,2,820,350,P,1,<rshift>,1,1,273693,543
Control_TS_1B,1,test,P,245,3,620,550,R,0,NONE,0,1,274693,951
Control_TS_1B,1,test,P,246,4,820,550,R,0,NONE,0,1,275694,950
Control_TS_1B,1,test,P,247,3,620,550,P,1,<rshift>,1,1,276693,353
Control_TS_1B,1,test,P,248,1,620,350,P,1,<rshift>,1,1,277693,421
Control_TS_1B,1,test,P,249,3,620,550,R,0,NONE,0,1,278694,950
Control_TS_1B,1,test,P,250,4,820,550,P,1,<rshift>,1,1,279693,365
Control_TS_1B,1,test,P,251,2,820,350,P,1,<rshift>,1,1,280693,409
Control_TS_1B,1,test,P,252,3,620,550,P,1,<rshift>,1,1,281693,399
Control_TS_1B,1,test,P,253,3,620,550,P,1,<rshift>,1,1,282694,390
Control_TS_1B,1,test,P,254,1,620,350,P,1,<rshift>,1,1,283694,467
Control_TS_1B,1,test,P,255,1,620,350,P,1,<rshift>,1,1,284694,458
Control_TS_1B,1,test,P,256,4,820,550,P,1,<rshift>,1,1,285694,336
Control_TS_1B,1,test,P,257,2,820,350,P,1,<rshift>,1,1,286694,424
Control_TS_1B,1,test,P,258,3,620,550,P,1,<rshift>,1,1,287694,343
Control_TS_1B,1,test,P,259,3,620,550,P,1,<rshift>,1,1,288694,336
Control_TS_1B,1,test,P,260,2,820,350,P,1,<rshift>,1,1,289693,470
Control_TS_1B,1,test,P,261,4,820,550,P,1,<rshift>,1,1,290694,328
Control_TS_1B,1,test,P,262,3,620,550,P,1,<rshift>,1,1,291693,298
Control_TS_1B,1,test,P,263,1,620,350,P,1,<rshift>,1,1,292693,295
Control_TS_1B,1,test,P,264,2,820,350,P,1,<rshift>,1,1,293693,291
Control_TS_1B,1,test,P,265,2,820,350,P,1,<rshift>,1,1,294693,251
Control_TS_1B,1,test,P,266,3,620,550,P,1,<rshift>,1,1,295693,294
Control_TS_1B,1,test,P,267,1,620,350,P,1,<rshift>,1,1,296693,360
Control_TS_1B,1,test,P,268,2,820,350,P,1,<rshift>,1,1,297694,279
Control_TS_1B,1,test,P,269,4,820,550,R,0,<rshift>,1,0,298693,308
Control_TS_1B,1,test,P,270,1,620,350,P,1,<rshift>,1,1,299693,282
Control_TS_1B,1,test,P,271,3,620,550,R,0,<rshift>,1,0,300693,341
Control_TS_1B,1,test,P,272,1,620,350,P,1,<rshift>,1,1,301693,384
Control_TS_1B,1,test,P,273,4,820,550,R,0,NONE,0,1,302693,950
Control_TS_1B,1,test,P,274,3,620,550,P,1,<rshift>,1,1,303693,320
Control_TS_1B,1,test,P,275,3,620,550,P,1,<rshift>,1,1,304693,405
Control_TS_1B,1,test,P,276,2,820,350,R,0,NONE,0,1,305694,950
Control_TS_1B,1,test,P,277,2,820,350,P,1,<rshift>,1,1,306693,407
Control_TS_1B,1,test,P,278,2,820,350,P,1,<rshift>,1,1,307693,382
Control_TS_1B,1,test,P,279,2,820,350,P,1,<rshift>,1,1,308693,358
Control_TS_1B,1,test,P,280,3,620,550,P,1,<rshift>,1,1,309693,383
Control_TS_1B,1,test,P,281,2,820,350,P,1,<rshift>,1,1,310693,365
Control_TS_1B,1,test,P,282,1,620,350,P,1,<rshift>,1,1,311694,377
Control_TS_1B,1,test,P,283,3,620,550,P,1,<rshift>,1,1,312693,383
Control_TS_1B,1,test,P,284,3,620,550,P,1,<rshift>,1,1,313694,409
Control_TS_1B,1,test,P,285,1,620,350,R,0,<rshift>,1,0,314694,403
Control_TS_1B,1,test,P,286,3,620,550,P,1,<rshift>,1,1,315694,370
Control_TS_1B,1,test,P,287,2,820,350,P,1,<rshift>,1,1,316694,347
Control_TS_1B,1,test,P,288,3,620,550,P,1,<rshift>,1,1,317694,412
Control_TS_1B,1,test,P,289,1,620,350,P,1,<rshift>,1,1,318694,384
Control_TS_1B,1,test,P,290,4,820,550,P,1,<rshift>,1,1,319694,283
Control_TS_1B,1,test,P,291,4,820,550,P,1,<rshift>,1,1,320694,325
Control_TS_1B,1,test,P,292,2,820,350,P,1,<rshift>,1,1,321694,329
Control_TS_1B,1,test,P,293,3,620,550,P,1,<rshift>,1,1,322694,347
Control_TS_1B,1,test,P,294,1,620,350,R,0,<rshift>,1,0,323694,285
Control_TS_1B,1,test,P,295,2,820,350,P,1,<rshift>,1,1,324694,276
Control_TS_1B,1,test,P,296,1,620,350,P,1,<rshift>,1,1,325693,352
Control_TS_1B,1,test,P,297,3,620,550,R,0,NONE,0,1,326694,950
Control_TS_1B,1,test,P,298,4,820,550,P,1,<rshift>,1,1,327693,318
Control_TS_1B,1,test,P,299,4,820,550,P,1,<rshift>,1,1,328693,460
Control_TS_1B,1,test,P,300,1,620,350,P,1,<rshift>,1,1,329694,440
Control_TS_1B,2,practice,R,1,1,620,350,R,1,NONE,0,0,334427,950
Control_TS_1B,2,practice,R,2,4,820,550,R,1,NONE,0,0,336422,950
Control_TS_1B,2,practice,R,3,1,620,350,R,1,<rshift>,1,1,338418,758
Control_TS_1B,2,practice,R,4,1,620,350,R,1,NONE,0,0,339191,951
Control_TS_1B,2,practice,R,5,1,620,350,P,0,NONE,0,1,341187,950
Control_TS_1B,2,practice,R,6,3,620,550,R,1,<rshift>,1,1,342152,433
Control_TS_1B,2,practice,R,7,4,820,550,R,1,<rshift>,1,1,342616,869
Control_TS_1B,2,practice,R,8,4,820,550,R,1,NONE,0,0,343501,950
Control_TS_1B,2,practice,R,9,4,820,550,P,0,NONE,0,1,345496,950
Control_TS_1B,2,practice,R,10,1,620,350,R,1,<rshift>,1,1,346461,467
Control_TS_1B,3,test,R,1,4,820,550,R,1,<rshift>,1,1,354483,491
Control_TS_1B,3,test,R,2,2,820,350,R,1,<rshift>,1,1,355483,353
Control_TS_1B,3,test,R,3,4,820,550,R,1,<rshift>,1,1,356483,371
Control_TS_1B,3,test,R,4,2,820,350,P,0,NONE,0,1,357483,950
Control_TS_1B,3,test,R,5,4,820,550,P,0,NONE,0,1,358483,950
Control_TS_1B,3,test,R,6,3,620,550,R,1,<rshift>,1,1,359483,364
Control_TS_1B,3,test,R,7,2,820,350,R,1,<rshift>,1,1,360484,431
Control_TS_1B,3,test,R,8,4,820,550,R,1,<rshift>,1,1,361483,515
Control_TS_1B,3,test,R,9,4,820,550,P,0,NONE,0,1,362483,950
Control_TS_1B,3,test,R,10,3,620,550,R,1,<rshift>,1,1,363483,369
Control_TS_1B,3,test,R,11,3,620,550,R,1,<rshift>,1,1,364483,553
Control_TS_1B,3,test,R,12,3,620,550,R,1,<rshift>,1,1,365483,407
Control_TS_1B,3,test,R,13,1,620,350,R,1,<rshift>,1,1,366483,386
Control_TS_1B,3,test,R,14,1,620,350,R,1,<rshift>,1,1,367483,362
Control_TS_1B,3,test,R,15,4,820,550,R,1,<rshift>,1,1,368483,335
Control_TS_1B,3,test,R,16,2,820,350,R,1,<rshift>,1,1,369483,400
Control_TS_1B,3,test,R,17,3,620,550,P,0,<rshift>,1,0,370483,405
Control_TS_1B,3,test,R,18,2,820,350,P,0,NONE,0,1,371483,950
Control_TS_1B,3,test,R,19,3,620,550,R,1,<rshift>,1,1,372482,450
Control_TS_1B,3,test,R,20,2,820,350,P,0,NONE,0,1,373483,950
Control_TS_1B,3,test,R,21,4,820,550,P,0,NONE,0,1,374482,951
Control_TS_1B,3,test,R,22,2,820,350,R,1,<rshift>,1,1,375483,428
Control_TS_1B,3,test,R,23,3,620,550,R,1,<rshift>,1,1,376483,455
Control_TS_1B,3,test,R,24,4,820,550,R,1,<rshift>,1,1,377483,491
Control_TS_1B,3,test,R,25,1,620,350,R,1,<rshift>,1,1,378483,435
Control_TS_1B,3,test,R,26,4,820,550,R,1,<rshift>,1,1,379483,325
Control_TS_1B,3,test,R,27,3,620,550,R,1,<rshift>,1,1,380483,448
Control_TS_1B,3,test,R,28,4,820,550,R,1,<rshift>,1,1,381483,347
Control_TS_1B,3,test,R,29,1,620,350,R,1,<rshift>,1,1,382483,357
Control_TS_1B,3,test,R,30,1,620,350,P,0,NONE,0,1,383483,950
Control_TS_1B,3,test,R,31,3,620,550,R,1,<rshift>,1,1,384483,375
Control_TS_1B,3,test,R,32,2,820,350,R,1,<rshift>,1,1,385483,366
Control_TS_1B,3,test,R,33,1,620,350,P,0,NONE,0,1,386483,950
Control_TS_1B,3,test,R,34,4,820,550,R,1,<rshift>,1,1,387483,356
Control_TS_1B,3,test,R,35,1,620,350,R,1,<rshift>,1,1,388483,400
Control_TS_1B,3,test,R,36,2,820,350,R,1,<rshift>,1,1,389483,396
Control_TS_1B,3,test,R,37,2,820,350,R,1,<rshift>,1,1,390483,497
Control_TS_1B,3,test,R,38,2,820,350,R,1,<rshift>,1,1,391483,388
Control_TS_1B,3,test,R,39,2,820,350,R,1,<rshift>,1,1,392483,396
Control_TS_1B,3,test,R,40,2,820,350,R,1,<rshift>,1,1,393483,324
Control_TS_1B,3,test,R,41,1,620,350,R,1,<rshift>,1,1,394483,554
Control_TS_1B,3,test,R,42,4,820,550,R,1,NONE,0,0,395483,950
Control_TS_1B,3,test,R,43,2,820,350,R,1,<rshift>,1,1,396483,631
Control_TS_1B,3,test,R,44,1,620,350,P,0,NONE,0,1,397483,950
Control_TS_1B,3,test,R,45,1,620,350,R,1,<rshift>,1,1,398483,488
Control_TS_1B,3,test,R,46,4,820,550,R,1,<rshift>,1,1,399483,386
Control_TS_1B,3,test,R,47,4,820,550,P,0,NONE,0,1,400483,950
Control_TS_1B,3,test,R,48,3,620,550,P,0,<rshift>,1,0,401482,359
Control_TS_1B,3,test,R,49,4,820,550,R,1,<rshift>,1,1,402483,458
Control_TS_1B,3,test,R,50,1,620,350,R,1,<rshift>,1,1,403483,390
Control_TS_1B,3,test,R,51,3,620,550,R,1,<rshift>,1,1,404483,407
Control_TS_1B,3,test,R,52,4,820,550,R,1,<rshift>,1,1,405483,369
Control_TS_1B,3,test,R,53,1,620,350,R,1,<rshift>,1,1,406483,380
Control_TS_1B,3,test,R,54,4,820,550,R,1,<rshift>,1,1,407483,432
Control_TS_1B,3,test,R,55,3,620,550,R,1,<rshift>,1,1,408483,345
Control_TS_1B,3,test,R,56,4,820,550,P,0,<rshift>,1,0,409483,333
Control_TS_1B,3,test,R,57,3,620,550,R,1,<rshift>,1,1,410482,310
Control_TS_1B,3,test,R,58,2,820,350,R,1,<rshift>,1,1,411483,376
Control_TS_1B,3,test,R,59,2,820,350,R,1,<rshift>,1,1,412483,401
Control_TS_1B,3,test,R,60,3,620,550,R,1,<rshift>,1,1,413483,387
Control_TS_1B,3,test,R,61,3,620,550,P,0,NONE,0,1,414483,950
Control_TS_1B,3,test,R,62,2,820,350,P,0,NONE,0,1,415483,950
Control_TS_1B,3,test,R,63,4,820,550,R,1,<rshift>,1,1,416483,480
Control_TS_1B,3,test,R,64,3,620,550,R,1,<rshift>,1,1,417483,453
Control_TS_1B,3,test,R,65,1,620,350,R,1,<rshift>,1,1,418483,400
Control_TS_1B,3,test,R,66,2,820,350,R,1,<rshift>,1,1,419483,306
Control_TS_1B,3,test,R,67,1,620,350,R,1,<rshift>,1,1,420483,427
Control_TS_1B,3,test,R,68,4,820,550,P,0,<rshift>,1,0,421483,327
Control_TS_1B,3,test,R,69,4,820,550,R,1,<rshift>,1,1,422483,483
Control_TS_1B,3,test,R,70,2,820,350,R,1,<rshift>,1,1,423483,423
Control_TS_1B,3,test,R,71,1,620,350,P,0,NONE,0,1,424483,950
Control_TS_1B,3,test,R,72,4,820,550,R,1,<rshift>,1,1,425482,335
Control_TS_1B,3,test,R,73,4,820,550,R,1,<rshift>,1,1,426483,429
Control_TS_1B,3,test,R,74,2,820,350,R,1,<rshift>,1,1,427482,410
Control_TS_1B,3,test,R,75,3,620,550,R,1,<rshift>,1,1,428483,393
Control_TS_1B,3,test,R,76,1,620,350,R,1,<rshift>,1,1,429483,400
Control_TS_1B,3,test,R,77,3,620,550,R,1,<rshift>,1,1,430482,443
Control_TS_1B,3,test,R,78,4,820,550,R,1,<rshift>,1,1,431483,330
Control_TS_1B,3,test,R,79,1,620,350,R,1,<rshift>,1,1,432483,393
Control_TS_1B,3,test,R,80,2,820,350,R,1,<rshift>,1,1,433483,391
Control_TS_1B,3,test,R,81,1,620,350,R,1,<rshift>,1,1,434483,401
Control_TS_1B,3,test,R,82,2,820,350,R,1,<rshift>,1,1,435483,378
Control_TS_1B,3,test,R,83,4,820,550,R,1,<rshift>,1,1,436483,365
Control_TS_1B,3,test,R,84,1,620,350,R,1,<rshift>,1,1,437483,372
Control_TS_1B,3,test,R,85,3,620,550,R,1,<rshift>,1,1,438483,425
Control_TS_1B,3,test,R,86,2,820,350,R,1,<rshift>,1,1,439483,448
Control_TS_1B,3,test,R,87,1,620,350,P,0,NONE,0,1,440483,950
Control_TS_1B,3,test,R,88,4,820,550,P,0,<rshift>,1,0,441483,379
Control_TS_1B,3,test,R,89,2,820,350,R,1,<rshift>,1,1,442483,299
Control_TS_1B,3,test,R,90,2,820,350,R,1,<rshift>,1,1,443483,473
Control_TS_1B,3,test,R,91,4,820,550,R,1,<rshift>,1,1,444483,578
Control_TS_1B,3,test,R,92,2,820,350,R,1,<rshift>,1,1,445483,417
Control_TS_1B,3,test,R,93,1,620,350,R,1,<rshift>,1,1,446483,602
Control_TS_1B,3,test,R,94,1,620,350,R,1,<rshift>,1,1,447483,435
Control_TS_1B,3,test,R,95,4,820,550,R,1,<rshift>,1,1,448483,368
Control_TS_1B,3,test,R,96,1,620,350,R,1,<rshift>,1,1,449483,380
Control_TS_1B,3,test,R,97,1,620,350,R,1,<rshift>,1,1,450483,418
Control_TS_1B,3,test,R,98,3,620,550,R,1,<rshift>,1,1,451483,378
Control_TS_1B,3,test,R,99,3,620,550,R,1,<rshift>,1,1,452483,432
Control_TS_1B,3,test,R,100,1,620,350,P,0,NONE,0,1,453483,950
Control_TS_1B,3,test,R,101,4,820,550,P,0,NONE,0,1,454483,950
Control_TS_1B,3,test,R,102,1,620,350,R,1,<rshift>,1,1,455483,524
Control_TS_1B,3,test,R,103,3,620,550,R,1,<rshift>,1,1,456483,355
Control_TS_1B,3,test,R,104,1,620,350,R,1,<rshift>,1,1,457483,428
Control_TS_1B,3,test,R,105,2,820,350,R,1,<rshift>,1,1,458483,311
Control_TS_1B,3,test,R,106,1,620,350,R,1,<rshift>,1,1,459483,347
Control_TS_1B,3,test,R,107,3,620,550,R,1,<rshift>,1,1,460483,351
Control_TS_1B,3,test,R,108,2,820,350,R,1,<rshift>,1,1,461483,311
Control_TS_1B,3,test,R,109,2,820,350,R,1,<rshift>,1,1,462483,428
Control_TS_1B,3,test,R,110,1,620,350,R,1,<rshift>,1,1,463483,335
Control_TS_1B,3,test,R,111,2,820,350,R,1,<rshift>,1,1,464482,338
Control_TS_1B,3,test,R,112,4,820,550,R,1,<rshift>,1,1,465483,349
Control_TS_1B,3,test,R,113,3,620,550,R,1,<rshift>,1,1,466483,319
Control_TS_1B,3,test,R,114,2,820,350,R,1,<rshift>,1,1,467483,359
Control_TS_1B,3,test,R,115,4,820,550,R,1,<rshift>,1,1,468483,348
Control_TS_1B,3,test,R,116,3,620,550,R,1,<rshift>,1,1,469483,365
Control_TS_1B,3,test,R,117,3,620,550,R,1,<rshift>,1,1,470483,437
Control_TS_1B,3,test,R,118,4,820,550,P,0,<rshift>,1,0,471483,369
Control_TS_1B,3,test,R,119,2,820,350,R,1,<rshift>,1,1,472483,262
Control_TS_1B,3,test,R,120,4,820,550,R,1,<rshift>,1,1,473483,441
Control_TS_1B,3,test,R,121,1,620,350,R,1,<rshift>,1,1,474483,398
Control_TS_1B,3,test,R,122,3,620,550,R,1,<rshift>,1,1,475483,339
Control_TS_1B,3,test,R,123,2,820,350,R,1,<rshift>,1,1,476483,367
Control_TS_1B,3,test,R,124,4,820,550,P,0,<rshift>,1,0,477483,285
Control_TS_1B,3,test,R,125,1,620,350,R,1,<rshift>,1,1,478483,290
Control_TS_1B,3,test,R,126,4,820,550,P,0,NONE,0,1,479483,950
Control_TS_1B,3,test,R,127,1,620,350,P,0,<rshift>,1,0,480483,407
Control_TS_1B,3,test,R,128,3,620,550,R,1,<rshift>,1,1,481483,261
Control_TS_1B,3,test,R,129,2,820,350,R,1,<rshift>,1,1,482483,366
Control_TS_1B,3,test,R,130,3,620,550,P,0,<rshift>,1,0,483483,351
Control_TS_1B,3,test,R,131,1,620,350,R,1,<rshift>,1,1,484482,487
Control_TS_1B,3,test,R,132,1,620,350,P,0,NONE,0,1,485483,950
Control_TS_1B,3,test,R,133,1,620,350,P,0,NONE,0,1,486482,950
Control_TS_1B,3,test,R,134,3,620,550,R,1,<rshift>,1,1,487482,364
Control_TS_1B,3,test,R,135,4,820,550,R,1,<rshift>,1,1,488483,405
Control_TS_1B,3,test,R,136,2,820,350,R,1,<rshift>,1,1,489482,363
Control_TS_1B,3,test,R,137,4,820,550,R,1,<rshift>,1,1,490483,427
Control_TS_1B,3,test,R,138,3,620,550,R,1,<rshift>,1,1,491483,378
Control_TS_1B,3,test,R,139,1,620,350,R,1,<rshift>,1,1,492483,362
Control_TS_1B,3,test,R,140,3,620,550,R,1,<rshift>,1,1,493483,377
Control_TS_1B,3,test,R,141,1,620,350,R,1,<rshift>,1,1,494483,408
Control_TS_1B,3,test,R,142,1,620,350,P,0,<rshift>,1,0,495482,371
Control_TS_1B,3,test,R,143,3,620,550,R,1,<rshift>,1,1,496483,370
Control_TS_1B,3,test,R,144,4,820,550,P,0,NONE,0,1,497483,950
Control_TS_1B,3,test,R,145,4,820,550,R,1,<rshift>,1,1,498482,450
Control_TS_1B,3,test,R,146,4,820,550,P,0,NONE,0,1,499482,951
Control_TS_1B,3,test,R,147,4,820,550,P,0,NONE,0,1,500482,950
Control_TS_1B,3,test,R,148,2,820,350,R,1,<rshift>,1,1,501482,377
Control_TS_1B,3,test,R,149,4,820,550,R,1,<rshift>,1,1,502483,469
Control_TS_1B,3,test,R,150,1,620,350,R,1,<rshift>,1,1,503483,448
Control_TS_1B,3,test,R,151,2,820,350,R,1,<rshift>,1,1,504483,451
Control_TS_1B,3,test,R,152,2,820,350,R,1,<rshift>,1,1,505483,484
Control_TS_1B,3,test,R,153,3,620,550,R,1,<rshift>,1,1,506483,535
Control_TS_1B,3,test,R,154,2,820,350,R,1,<rshift>,1,1,507483,433
Control_TS_1B,3,test,R,155,4,820,550,P,0,NONE,0,1,508483,950
Control_TS_1B,3,test,R,156,3,620,550,P,0,NONE,0,1,509483,950
Control_TS_1B,3,test,R,157,4,820,550,R,1,<rshift>,1,1,510482,350
Control_TS_1B,3,test,R,158,3,620,550,P,0,NONE,0,1,511483,950
Control_TS_1B,3,test,R,159,1,620,350,R,1,<rshift>,1,1,512483,390
Control_TS_1B,3,test,R,160,4,820,550,R,1,<rshift>,1,1,513482,450
Control_TS_1B,3,test,R,161,3,620,550,R,1,<rshift>,1,1,514483,585
Control_TS_1B,3,test,R,162,1,620,350,R,1,<rshift>,1,1,515483,438
Control_TS_1B,3,test,R,163,2,820,350,R,1,<rshift>,1,1,516483,312
Control_TS_1B,3,test,R,164,3,620,550,P,0,NONE,0,1,517483,950
Control_TS_1B,3,test,R,165,1,620,350,R,1,<rshift>,1,1,518483,379
Control_TS_1B,3,test,R,166,3,620,550,P,0,NONE,0,1,519483,950
Control_TS_1B,3,test,R,167,3,620,550,R,1,<rshift>,1,1,520483,470
Control_TS_1B,3,test,R,168,1,620,350,P,0,NONE,0,1,521483,950
Control_TS_1B,3,test,R,169,1,620,350,R,1,<rshift>,1,1,522482,439
Control_TS_1B,3,test,R,170,3,620,550,P,0,NONE,0,1,523482,951
Control_TS_1B,3,test,R,171,3,620,550,P,0,NONE,0,1,524482,950
Control_TS_1B,3,test,R,172,4,820,550,R,1,<rshift>,1,1,525482,307
Control_TS_1B,3,test,R,173,3,620,550,R,1,<rshift>,1,1,526483,660
Control_TS_1B,3,test,R,174,4,820,550,R,1,<rshift>,1,1,527483,316
Control_TS_1B,3,test,R,175,4,820,550,R,1,<rshift>,1,1,528483,322
Control_TS_1B,3,test,R,176,4,820,550,R,1,<rshift>,1,1,529483,295
Control_TS_1B,3,test,R,177,4,820,550,R,1,<rshift>,1,1,530483,256
Control_TS_1B,3,test,R,178,1,620,350,P,0,<rshift>,1,0,531482,450
Control_TS_1B,3,test,R,179,1,620,350,R,1,<rshift>,1,1,532483,563
Control_TS_1B,3,test,R,180,1,620,350,R,1,NONE,0,0,533482,951
Control_TS_1B,3,test,R,181,2,820,350,R,1,<rshift>,1,1,534483,485
Control_TS_1B,3,test,R,182,2,820,350,R,1,<rshift>,1,1,535483,392
Control_TS_1B,3,test,R,183,3,620,550,R,1,<rshift>,1,1,536483,420
Control_TS_1B,3,test,R,184,3,620,550,R,1,<rshift>,1,1,537483,332
Control_TS_1B,3,test,R,185,2,820,350,R,1,<rshift>,1,1,538483,438
Control_TS_1B,3,test,R,186,1,620,350,P,0,NONE,0,1,539483,950
Control_TS_1B,3,test,R,187,4,820,550,R,1,<rshift>,1,1,540483,337
Control_TS_1B,3,test,R,188,1,620,350,R,1,<rshift>,1,1,541483,483
Control_TS_1B,3,test,R,189,1,620,350,R,1,<rshift>,1,1,542483,395
Control_TS_1B,3,test,R,190,3,620,550,R,1,<rshift>,1,1,543482,337
Control_TS_1B,3,test,R,191,4,820,550,R,1,<rshift>,1,1,544482,283
Control_TS_1B,3,test,R,192,4,820,550,R,1,<rshift>,1,1,545483,321
Control_TS_1B,3,test,R,193,1,620,350,R,1,<rshift>,1,1,546483,445
Control_TS_1B,3,test,R,194,3,620,550,R,1,<rshift>,1,1,547482,435
Control_TS_1B,3,test,R,195,3,620,550,R,1,<rshift>,1,1,548482,409
Control_TS_1B,3,test,R,196,3,620,550,R,1,<rshift>,1,1,549483,361
Control_TS_1B,3,test,R,197,3,620,550,R,1,<rshift>,1,1,550483,376
Control_TS_1B,3,test,R,198,4,820,550,R,1,<rshift>,1,1,551482,516
Control_TS_1B,3,test,R,199,4,820,550,P,0,<rshift>,1,0,552483,438
Control_TS_1B,3,test,R,200,3,620,550,R,1,<rshift>,1,1,553482,516
Control_TS_1B,3,test,R,201,2,820,350,R,1,<rshift>,1,1,554483,410
Control_TS_1B,3,test,R,202,3,620,550,R,1,NONE,0,0,555483,950
Control_TS_1B,3,test,R,203,2,820,350,R,1,<rshift>,1,1,556483,344
Control_TS_1B,3,test,R,204,2,820,350,P,0,<rshift>,1,0,557483,402
Control_TS_1B,3,test,R,205,2,820,350,R,1,<rshift>,1,1,558482,210
Control_TS_1B,3,test,R,206,3,620,550,R,1,<rshift>,1,1,559483,438
Control_TS_1B,3,test,R,207,1,620,350,R,1,<rshift>,1,1,560483,444
Control_TS_1B,3,test,R,208,4,820,550,R,1,<rshift>,1,1,561483,516
Control_TS_1B,3,test,R,209,3,620,550,R,1,<rshift>,1,1,562482,395
Control_TS_1B,3,test,R,210,1,620,350,R,1,<rshift>,1,1,563483,363
Control_TS_1B,3,test,R,211,2,820,350,P,0,NONE,0,1,564483,950
Control_TS_1B,3,test,R,212,4,820,550,R,1,<rshift>,1,1,565483,293
Control_TS_1B,3,test,R,213,3,620,550,R,1,<rshift>,1,1,566483,326
Control_TS_1B,3,test,R,214,1,620,350,R,1,<rshift>,1,1,567483,309
Control_TS_1B,3,test,R,215,3,620,550,R,1,<rshift>,1,1,568483,380
Control_TS_1B,3,test,R,216,1,620,350,R,1,<rshift>,1,1,569483,368
Control_TS_1B,3,test,R,217,1,620,350,R,1,<rshift>,1,1,570482,372
Control_TS_1B,3,test,R,218,1,620,350,R,1,<rshift>,1,1,571483,353
Control_TS_1B,3,test,R,219,2,820,350,R,1,<rshift>,1,1,572483,332
Control_TS_1B,3,test,R,220,3,620,550,P,0,<rshift>,1,0,573483,318
Control_TS_1B,3,test,R,221,1,620,350,R,1,<rshift>,1,1,574483,244
Control_TS_1B,3,test,R,222,1,620,350,R,1,<rshift>,1,1,575483,442
Control_TS_1B,3,test,R,223,2,820,350,R,1,<rshift>,1,1,576483,433
Control_TS_1B,3,test,R,224,3,620,550,P,0,<rshift>,1,0,577483,350
Control_TS_1B,3,test,R,225,1,620,350,R,1,<rshift>,1,1,578483,232
Control_TS_1B,3,test,R,226,3,620,550,P,0,NONE,0,1,579483,950
Control_TS_1B,3,test,R,227,3,620,550,R,1,<rshift>,1,1,580483,499
Control_TS_1B,3,test,R,228,2,820,350,P,0,NONE,0,1,581482,951
Control_TS_1B,3,test,R,229,4,820,550,R,1,<rshift>,1,1,582483,400
Control_TS_1B,3,test,R,230,1,620,350,R,1,<rshift>,1,1,583483,468
Control_TS_1B,3,test,R,231,2,820,350,R,1,<rshift>,1,1,584483,458
Control_TS_1B,3,test,R,232,4,820,550,R,1,<rshift>,1,1,585483,319
Control_TS_1B,3,test,R,233,2,820,350,R,1,<rshift>,1,1,586483,383
Control_TS_1B,3,test,R,234,3,620,550,R,1,<rshift>,1,1,587483,479
Control_TS_1B,3,test,R,235,2,820,350,R,1,<rshift>,1,1,588482,320
Control_TS_1B,3,test,R,236,1,620,350,P,0,<rshift>,1,0,589483,367
Control_TS_1B,3,test,R,237,3,620,550,P,0,<rshift>,1,0,590483,445
Control_TS_1B,3,test,R,238,3,620,550,R,1,<rshift>,1,1,591482,678
Control_TS_1B,3,test,R,239,1,620,350,R,1,<rshift>,1,1,592483,334
Control_TS_1B,3,test,R,240,4,820,550,P,0,<rshift>,1,0,593483,307
Control_TS_1B,3,test,R,241,2,820,350,R,1,<rshift>,1,1,594483,278
Control_TS_1B,3,test,R,242,4,820,550,R,1,<rshift>,1,1,595483,431
Control_TS_1B,3,test,R,243,4,820,550,R,1,<rshift>,1,1,596483,356
Control_TS_1B,3,test,R,244,4,820,550,R,1,<rshift>,1,1,597483,319
Control_TS_1B,3,test,R,245,3,620,550,R,1,<rshift>,1,1,598483,341
Control_TS_1B,3,test,R,246,3,620,550,R,1,<rshift>,1,1,599482,349
Control_TS_1B,3,test,R,247,4,820,550,R,1,<rshift>,1,1,600483,429
Control_TS_1B,3,test,R,248,2,820,350,R,1,<rshift>,1,1,601483,363
Control_TS_1B,3,test,R,249,2,820,350,R,1,<rshift>,1,1,602483,349
Control_TS_1B,3,test,R,250,4,820,550,R,1,<rshift>,1,1,603483,491
Control_TS_1B,3,test,R,251,2,820,350,R,1,<rshift>,1,1,604483,415
Control_TS_1B,3,test,R,252,1,620,350,R,1,<rshift>,1,1,605483,608
Control_TS_1B,3,test,R,253,1,620,350,R,1,<rshift>,1,1,606483,444
Control_TS_1B,3,test,R,254,4,820,550,R,1,<rshift>,1,1,607483,426
Control_TS_1B,3,test,R,255,1,620,350,R,1,<rshift>,1,1,608483,325
Control_TS_1B,3,test,R,256,3,620,550,R,1,<rshift>,1,1,609483,333
Control_TS_1B,3,test,R,257,3,620,550,R,1,<rshift>,1,1,610483,435
Control_TS_1B,3,test,R,258,1,620,350,R,1,<rshift>,1,1,611483,388
Control_TS_1B,3,test,R,259,3,620,550,R,1,<rshift>,1,1,612482,328
Control_TS_1B,3,test,R,260,1,620,350,R,1,<rshift>,1,1,613483,355
Control_TS_1B,3,test,R,261,1,620,350,R,1,<rshift>,1,1,614483,364
Control_TS_1B,3,test,R,262,3,620,550,R,1,<rshift>,1,1,615483,315
Control_TS_1B,3,test,R,263,4,820,550,R,1,<rshift>,1,1,616483,287
Control_TS_1B,3,test,R,264,4,820,550,R,1,<rshift>,1,1,617483,331
Control_TS_1B,3,test,R,265,2,820,350,R,1,<rshift>,1,1,618483,336
Control_TS_1B,3,test,R,266,1,620,350,R,1,<rshift>,1,1,619483,390
Control_TS_1B,3,test,R,267,1,620,350,R,1,<rshift>,1,1,620483,316
Control_TS_1B,3,test,R,268,3,620,550,R,1,<rshift>,1,1,621482,427
Control_TS_1B,3,test,R,269,4,820,550,R,1,<rshift>,1,1,622483,271
Control_TS_1B,3,test,R,270,3,620,550,R,1,<rshift>,1,1,623482,285
Control_TS_1B,3,test,R,271,4,820,550,R,1,<rshift>,1,1,624483,247
Control_TS_1B,3,test,R,272,3,620,550,R,1,<rshift>,1,1,625483,318
Control_TS_1B,3,test,R,273,4,820,550,R,1,<rshift>,1,1,626483,301
Control_TS_1B,3,test,R,274,1,620,350,R,1,<rshift>,1,1,627482,546
Control_TS_1B,3,test,R,275,3,620,550,R,1,<rshift>,1,1,628483,371
Control_TS_1B,3,test,R,276,3,620,550,R,1,<rshift>,1,1,629482,409
Control_TS_1B,3,test,R,277,2,820,350,P,0,<rshift>,1,0,630483,486
Control_TS_1B,3,test,R,278,3,620,550,R,1,<rshift>,1,1,631483,232
Control_TS_1B,3,test,R,279,4,820,550,R,1,<rshift>,1,1,632483,312
Control_TS_1B,3,test,R,280,1,620,350,R,1,<rshift>,1,1,633482,295
Control_TS_1B,3,test,R,281,1,620,350,P,0,NONE,0,1,634483,950
Control_TS_1B,3,test,R,282,4,820,550,R,1,<rshift>,1,1,635483,390
Control_TS_1B,3,test,R,283,4,820,550,R,1,<rshift>,1,1,636483,464
Control_TS_1B,3,test,R,284,2,820,350,R,1,<rshift>,1,1,637483,527
Control_TS_1B,3,test,R,285,1,620,350,R,1,<rshift>,1,1,638483,385
Control_TS_1B,3,test,R,286,2,820,350,R,1,<rshift>,1,1,639483,416
Control_TS_1B,3,test,R,287,4,820,550,P,0,<rshift>,1,0,640483,391
Control_TS_1B,3,test,R,288,2,820,350,R,1,<rshift>,1,1,641483,476
Control_TS_1B,3,test,R,289,4,820,550,R,1,<rshift>,1,1,642483,688
Control_TS_1B,3,test,R,290,4,820,550,R,1,<rshift>,1,1,643483,419
Control_TS_1B,3,test,R,291,2,820,350,R,1,<rshift>,1,1,644483,532
Control_TS_1B,3,test,R,292,4,820,550,P,0,NONE,0,1,645483,950
Control_TS_1B,3,test,R,293,1,620,350,R,1,<rshift>,1,1,646483,555
Control_TS_1B,3,test,R,294,1,620,350,P,0,<rshift>,1,0,647482,440
Control_TS_1B,3,test,R,295,4,820,550,P,0,<rshift>,1,0,648483,279
Control_TS_1B,3,test,R,296,4,820,550,P,0,NONE,0,1,649483,950
Control_TS_1B,3,test,R,297,1,620,350,R,1,<rshift>,1,1,650483,406
Control_TS_1B,3,test,R,298,3,620,550,P,0,<rshift>,1,0,651483,378
Control_TS_1B,3,test,R,299,3,620,550,R,1,<rshift>,1,1,652483,557
Control_TS_1B,3,test,R,300,1,620,350,R,1,<rshift>,1,1,653483,430
