subnum,block,type,correctresponse,trial,choice,x,y,stim,present,response,responded,corr,starttime,rt
Control_TS_8B,0,practice,P,1,2,820,350,P,1,NONE,0,0,6675,950
Control_TS_8B,0,practice,P,2,1,620,350,R,0,NONE,0,1,8669,950
Control_TS_8B,0,practice,P,3,4,820,550,P,1,<rshift>,1,1,9633,544
Control_TS_8B,0,practice,P,4,3,620,550,P,1,<rshift>,1,1,10191,812
Control_TS_8B,0,practice,P,5,4,820,550,P,1,<rshift>,1,1,11017,559
Control_TS_8B,0,practice,P,6,2,820,350,R,0,<rshift>,1,0,11673,492
Control_TS_8B,0,practice,P,7,2,820,350,P,1,<rshift>,1,1,13223,735
Control_TS_8B,0,practice,P,8,3,620,550,P,1,<rshift>,1,1,13972,488
Control_TS_8B,0,practice,P,9,4,820,550,P,1,<rshift>,1,1,14673,453
Control_TS_8B,0,practice,P,10,2,820,350,P,1,<rshift>,1,1,15674,515
Control_TS_8B,1,test,P,1,4,820,550,P,1,<rshift>,1,1,32982,738
Control_TS_8B,1,test,P,2,1,620,350,P,1,<rshift>,1,1,33982,379
Control_TS_8B,1,test,P,3,2,820,350,P,1,<rshift>,1,1,34982,400
Control_TS_8B,1,test,P,4,4,820,550,P,1,<rshift>,1,1,35982,331
Control_TS_8B,1,test,P,5,1,620,350,P,1,<rshift>,1,1,36982,394
Control_TS_8B,1,test,P,6,1,620,350,R,0,<rshift>,1,0,37982,352
Control_TS_8B,1,test,P,7,4,820,550,R,0,<rshift>,1,0,38982,495
Control_TS_8B,1,test,P,8,4,820,550,P,1,<rshift>,1,1,39982,486
Control_TS_8B,1,test,P,9,1,620,350,R,0,NONE,0,1,40982,950
Control_TS_8B,1,test,P,10,4,820,550,P,1,<rshift>,1,1,41982,417
Control_TS_8B,1,test,P,11,1,620,350,R,0,<rshift>,1,0,42982,405
Control_TS_8B,1,test,P,12,1,620,350,P,1,<rshift>,1,1,43982,462
Control_TS_8B,1,test,P,13,1,620,350,P,1,<rshift>,1,1,44982,395
Control_TS_8B,1,test,P,14,2,820,350,R,0,NONE,0,1,45982,950
Control_TS_8B,1,test,P,15,1,620,350,R,0,<rshift>,1,0,46982,515
Control_TS_8B,1,test,P,16,2,820,350,P,1,<rshift>,1,1,47982,669
Control_TS_8B,1,test,P,17,2,820,350,P,1,<rshift>,1,1,48982,406
Control_TS_8B,1,test,P,18,3,620,550,R,0,NONE,0,1,49982,950
Control_TS_8B,1,test,P,19,4,820,550,P,1,<rshift>,1,1,50982,597
Control_TS_8B,1,test,P,20,3,620,550,P,1,<rshift>,1,1,51982,558
Control_TS_8B,1,test,P,21,2,820,350,P,1,<rshift>,1,1,52982,445
Control_TS_8B,1,test,P,22,1,620,350,P,1,<rshift>,1,1,53982,530
Control_TS_8B,1,test,P,23,4,820,550,P,1,<rshift>,1,1,54982,578
Control_TS_8B,1,test,P,24,2,820,350,P,1,<rshift>,1,1,55983,437
Control_TS_8B,1,test,P,25,4,820,550,P,1,<rshift>,1,1,56982,453
Control_TS_8B,1,test,P,26,3,620,550,P,1,<rshift>,1,1,57982,398
Control_TS_8B,1,test,P,27,4,820,550,P,1,<rshift>,1,1,58982,489
Control_TS_8B,1,test,P,28,1,620,350,P,1,<rshift>,1,1,59982,399
Control_TS_8B,1,test,P,29,3,620,550,P,1,<rshift>,1,1,60982,402
Control_TS_8B,1,test,P,30,3,620,550,P,1,<rshift>,1,1,61982,449
Control_TS_8B,1,test,P,31,4,820,550,P,1,<rshift>,1,1,62982,515
Control_TS_8B,1,test,P,32,2,820,350,R,0,<rshift>,1,0,63982,315
Control_TS_8B,1,test,P,33,2,820,350,P,1,<rshift>,1,1,64982,484
Control_TS_8B,1,test,P,34,1,620,350,P,1,<rshift>,1,1,65982,456
Control_TS_8B,1,test,P,35,4,820,550,P,1,<rshift>,1,1,66982,539
Control_TS_8B,1,test,P,36,2,820,350,P,1,<rshift>,1,1,67982,384
Control_TS_8B,1,test,P,37,1,620,350,P,1,<rshift>,1,1,68982,344
Control_TS_8B,1,test,P,38,3,620,550,P,1,<rshift>,1,1,69982,494
Control_TS_8B,1,test,P,39,2,820,350,R,0,NONE,0,1,70982,950
Control_TS_8B,1,test,P,40,3,620,550,P,1,<rshift>,1,1,71982,472
Control_TS_8B,1,test,P,41,1,620,350,P,1,<rshift>,1,1,72982,436
Control_TS_8B,1,test,P,42,2,820,350,P,1,<rshift>,1,1,73982,404
Control_TS_8B,1,test,P,43,2,820,350,P,1,<rshift>,1,1,74982,381
Control_TS_8B,1,test,P,44,4,820,550,P,1,<rshift>,1,1,75982,409
Control_TS_8B,1,test,P,45,1,620,350,R,0,<rshift>,1,0,76982,350
Control_TS_8B,1,test,P,46,3,620,550,P,1,<rshift>,1,1,77982,461
Control_TS_8B,1,test,P,47,1,620,350,R,0,NONE,0,1,78982,950
Control_TS_8B,1,test,P,48,4,820,550,P,1,<rshift>,1,1,79982,567
Control_TS_8B,1,test,P,49,3,620,550,P,1,<rshift>,1,1,80982,515
Control_TS_8B,1,test,P,50,1,620,350,R,0,NONE,0,1,81982,950
Control_TS_8B,1,test,P,51,4,820,550,R,0,NONE,0,1,82982,950
Control_TS_8B,1,test,P,52,3,620,550,R,0,<rshift>,1,0,83982,427
Control_TS_8B,1,test,P,53,4,820,550,P,1,<rshift>,1,1,84982,523
Control_TS_8B,1,test,P,54,2,820,350,P,1,<rshift>,1,1,85982,544
Control_TS_8B,1,test,P,55,4,820,550,P,1,<rshift>,1,1,86982,652
Control_TS_8B,1,test,P,56,4,820,550,P,1,<rshift>,1,1,87982,543
Control_TS_8B,1,test,P,57,4,820,550,P,1,<rshift>,1,1,88982,573
Control_TS_8B,1,test,P,58,3,620,550,R,0,NONE,0,1,89982,950
Control_TS_8B,1,test,P,59,4,820,550,P,1,<rshift>,1,1,90982,576
Control_TS_8B,1,test,P,60,3,620,550,P,1,<rshift>,1,1,91982,600
Control_TS_8B,1,test,P,61,1,620,350,P,1,<rshift>,1,1,92982,584
Control_TS_8B,1,test,P,62,4,820,550,P,1,<rshift>,1,1,93982,467
Control_TS_8B,1,test,P,63,2,820,350,P,1,<rshift>,1,1,94982,463
Control_TS_8B,1,test,P,64,3,620,550,R,0,NONE,0,1,95982,950
Control_TS_8B,1,test,P,65,1,620,350,P,1,<rshift>,1,1,96982,540
Control_TS_8B,1,test,P,66,1,620,350,P,1,<rshift>,1,1,97982,522
Control_TS_8B,1,test,P,67,4,820,550,P,1,<rshift>,1,1,98982,515
Control_TS_8B,1,test,P,68,3,620,550,P,1,<rshift>,1,1,99982,514
Control_TS_8B,1,test,P,69,1,620,350,P,1,<rshift>,1,1,100982,467
Control_TS_8B,1,test,P,70,2,820,350,P,1,<rshift>,1,1,101982,483
Control_TS_8B,1,test,P,71,4,820,550,P,1,<rshift>,1,1,102982,391
Control_TS_8B,1,test,P,72,3,620,550,P,1,<rshift>,1,1,103982,410
Control_TS_8B,1,test,P,73,3,620,550,P,1,<rshift>,1,1,104982,368
Control_TS_8B,1,test,P,74,1,620,350,R,0,NONE,0,1,105982,950
Control_TS_8B,1,test,P,75,1,620,350,P,1,<rshift>,1,1,106982,477
Control_TS_8B,1,test,P,76,2,820,350,P,1,<rshift>,1,1,107982,525
Control_TS_8B,1,test,P,77,4,820,550,P,1,<rshift>,1,1,108982,606
Control_TS_8B,1,test,P,78,2,820,350,P,1,<rshift>,1,1,109982,601
Control_TS_8B,1,test,P,79,4,820,550,P,1,<rshift>,1,1,110982,669
Control_TS_8B,1,test,P,80,4,820,550,R,0,NONE,0,1,111982,950
Control_TS_8B,1,test,P,81,1,620,350,P,1,<rshift>,1,1,112982,526
Control_TS_8B,1,test,P,82,3,620,550,P,1,<rshift>,1,1,113982,478
Control_TS_8B,1,test,P,83,2,820,350,P,1,<rshift>,1,1,114982,464
Control_TS_8B,1,test,P,84,3,620,550,P,1,<rshift>,1,1,115982,452
Control_TS_8B,1,test,P,85,1,620,350,P,1,<rshift>,1,1,116982,450
Control_TS_8B,1,test,P,86,3,620,550,R,0,NONE,0,1,117982,950
Control_TS_8B,1,test,P,87,4,820,550,P,1,<rshift>,1,1,118982,525
Control_TS_8B,1,test,P,88,2,820,350,P,1,<rshift>,1,1,119982,424
Control_TS_8B,1,test,P,89,3,620,550,P,1,<rshift>,1,1,120982,482
Control_TS_8B,1,test,P,90,1,620,350,P,1,<rshift>,1,1,121982,402
Control_TS_8B,1,test,P,91,3,620,550,R,0,NONE,0,1,122982,950
Control_TS_8B,1,test,P,92,2,820,350,P,1,<rshift>,1,1,123982,384
Control_TS_8B,1,test,P,93,4,820,550,P,1,<rshift>,1,1,124982,398
Control_TS_8B,1,test,P,94,2,820,350,P,1,<rshift>,1,1,125982,426
Control_TS_8B,1,test,P,95,4,820,550,P,1,<rshift>,1,1,126982,595
Control_TS_8B,1,test,P,96,1,620,350,P,1,<rshift>,1,1,127982,515
Control_TS_8B,1,test,P,97,4,820,550,P,1,<rshift>,1,1,128982,476
Control_TS_8B,1,test,P,98,2,820,350,P,1,<rshift>,1,1,129982,370
Control_TS_8B,1,test,P,99,4,820,550,P,1,<rshift>,1,1,130982,387
Control_TS_8B,1,test,P,100,2,820,350,P,1,<rshift>,1,1,131982,457
Control_TS_8B,1,test,P,101,4,820,550,P,1,<rshift>,1,1,132982,372
Control_TS_8B,1,test,P,102,3,620,550,P,1,<rshift>,1,1,133982,476
Control_TS_8B,1,test,P,103,3,620,550,P,1,<rshift>,1,1,134982,384
Control_TS_8B,1,test,P,104,2,820,350,P,1,<rshift>,1,1,135982,416
Control_TS_8B,1,test,P,105,2,820,350,P,1,<rshift>,1,1,136982,390
Control_TS_8B,1,test,P,106,1,620,350,P,1,<rshift>,1,1,137982,432
Control_TS_8B,1,test,P,107,2,820,350,P,1,<rshift>,1,1,138982,398
Control_TS_8B,1,test,P,108,1,620,350,P,1,<rshift>,1,1,139982,400
Control_TS_8B,1,test,P,109,4,820,550,P,1,<rshift>,1,1,140982,461
Control_TS_8B,1,test,P,110,4,820,550,P,1,<rshift>,1,1,141982,382
Control_TS_8B,1,test,P,111,2,820,350,P,1,<rshift>,1,1,142982,338
Control_TS_8B,1,test,P,112,2,820,350,P,1,<rshift>,1,1,143982,380
Control_TS_8B,1,test,P,113,1,620,350,P,1,<rshift>,1,1,144982,439
Control_TS_8B,1,test,P,114,2,820,350,P,1,<rshift>,1,1,145982,424
Control_TS_8B,1,test,P,115,2,820,350,P,1,<rshift>,1,1,146982,333
Control_TS_8B,1,test,P,116,2,820,350,P,1,<rshift>,1,1,147982,389
Control_TS_8B,1,test,P,117,3,620,550,P,1,<rshift>,1,1,148982,431
Control_TS_8B,1,test,P,118,1,620,350,P,1,<rshift>,1,1,149982,380
Control_TS_8B,1,test,P,119,1,620,350,P,1,<rshift>,1,1,150982,328
Control_TS_8B,1,test,P,120,3,620,550,P,1,<rshift>,1,1,151982,429
Control_TS_8B,1,test,P,121,3,620,550,P,1,<rshift>,1,1,152982,374
Control_TS_8B,1,test,P,122,1,620,350,P,1,<rshift>,1,1,153982,383
Control_TS_8B,1,test,P,123,3,620,550,P,1,<rshift>,1,1,154982,400
Control_TS_8B,1,test,P,124,1,620,350,R,0,<rshift>,1,0,155982,327
Control_TS_8B,1,test,P,125,4,820,550,R,0,NONE,0,1,156982,950
Control_TS_8B,1,test,P,126,3,620,550,R,0,NONE,0,1,157982,950
Control_TS_8B,1,test,P,127,3,620,550,P,1,<rshift>,1,1,158982,454
Control_TS_8B,1,test,P,128,3,620,550,R,0,NONE,0,1,159982,950
Control_TS_8B,1,test,P,129,4,820,550,P,1,<rshift>,1,1,160982,451
Control_TS_8B,1,test,P,130,2,820,350,P,1,<rshift>,1,1,161982,480
Control_TS_8B,1,test,P,131,2,820,350,P,1,<rshift>,1,1,162982,403
Control_TS_8B,1,test,P,132,3,620,550,P,1,<rshift>,1,1,163982,498
Control_TS_8B,1,test,P,133,4,820,550,R,0,NONE,0,1,164982,950
Control_TS_8B,1,test,P,134,4,820,550,P,1,<rshift>,1,1,165982,601
Control_TS_8B,1,test,P,135,1,620,350,P,1,<rshift>,1,1,166982,524
Control_TS_8B,1,test,P,136,1,620,350,P,1,<rshift>,1,1,167982,405
Control_TS_8B,1,test,P,137,2,820,350,R,0,NONE,0,1,168981,950
Control_TS_8B,1,test,P,138,3,620,550,P,1,<rshift>,1,1,169982,440
Control_TS_8B,1,test,P,139,2,820,350,P,1,<rshift>,1,1,170982,515
Control_TS_8B,1,test,P,140,2,820,350,P,1,<rshift>,1,1,171982,404
Control_TS_8B,1,test,P,141,2,820,350,P,1,<rshift>,1,1,172982,349
Control_TS_8B,1,test,P,142,2,820,350,P,1,<rshift>,1,1,173982,353
Control_TS_8B,1,test,P,143,4,820,550,R,0,NONE,0,1,174982,950
Control_TS_8B,1,test,P,144,1,620,350,P,1,<rshift>,1,1,175982,537
Control_TS_8B,1,test,P,145,4,820,550,P,1,<rshift>,1,1,176982,528
Control_TS_8B,1,test,P,146,1,620,350,P,1,<rshift>,1,1,177982,479
Control_TS_8B,1,test,P,147,1,620,350,P,1,<rshift>,1,1,178982,443
Control_TS_8B,1,test,P,148,2,820,350,P,1,<rshift>,1,1,179982,472
Control_TS_8B,1,test,P,149,4,820,550,P,1,<rshift>,1,1,180982,482
Control_TS_8B,1,test,P,150,4,820,550,P,1,<rshift>,1,1,181982,463
Control_TS_8B,1,test,P,151,2,820,350,R,0,<rshift>,1,0,182982,370
Control_TS_8B,1,test,P,152,3,620,550,P,1,<rshift>,1,1,183982,717
Control_TS_8B,1,test,P,153,3,620,550,P,1,<rshift>,1,1,184982,601
Control_TS_8B,1,test,P,154,4,820,550,R,0,NONE,0,1,185982,950
Control_TS_8B,1,test,P,155,1,620,350,P,1,<rshift>,1,1,186982,498
Control_TS_8B,1,test,P,156,1,620,350,R,0,NONE,0,1,187982,950
Control_TS_8B,1,test,P,157,3,620,550,P,1,<rshift>,1,1,188982,465
Control_TS_8B,1,test,P,158,3,620,550,R,0,NONE,0,1,189982,950
Control_TS_8B,1,test,P,159,3,620,550,P,1,<rshift>,1,1,190982,492
Control_TS_8B,1,test,P,160,3,620,550,P,1,<rshift>,1,1,191982,527
Control_TS_8B,1,test,P,161,1,620,350,R,0,NONE,0,1,192982,950
Control_TS_8B,1,test,P,162,4,820,550,P,1,<rshift>,1,1,193981,620
Control_TS_8B,1,test,P,163,4,820,550,P,1,<rshift>,1,1,194982,657
Control_TS_8B,1,test,P,164,2,820,350,P,1,<rshift>,1,1,195982,691
Control_TS_8B,1,test,P,165,1,620,350,P,1,<rshift>,1,1,196982,540
Control_TS_8B,1,test,P,166,1,620,350,P,1,<rshift>,1,1,197982,537
Control_TS_8B,1,test,P,167,1,620,350,P,1,<rshift>,1,1,198982,528
Control_TS_8B,1,test,P,168,3,620,550,P,1,<rshift>,1,1,199982,620
Control_TS_8B,1,test,P,169,4,820,550,P,1,<rshift>,1,1,200982,619
Control_TS_8B,1,test,P,170,4,820,550,R,0,NONE,0,1,201982,950
Control_TS_8B,1,test,P,171,1,620,350,R,0,NONE,0,1,202982,950
Control_TS_8B,1,test,P,172,3,620,550,P,1,<rshift>,1,1,203982,640
Control_TS_8B,1,test,P,173,1,620,350,R,0,NONE,0,1,204982,950
Control_TS_8B,1,test,P,174,3,620,550,P,1,<rshift>,1,1,205982,514
Control_TS_8B,1,test,P,175,4,820,550,P,1,<rshift>,1,1,206981,494
Control_TS_8B,1,test,P,176,2,820,350,P,1,<rshift>,1,1,207981,443
Control_TS_8B,1,test,P,177,4,820,550,P,1,<rshift>,1,1,208982,428
Control_TS_8B,1,test,P,178,1,620,350,R,0,NONE,0,1,209982,950
Control_TS_8B,1,test,P,179,3,620,550,R,0,NONE,0,1,210982,950
Control_TS_8B,1,test,P,180,3,620,550,P,1,<rshift>,1,1,211982,577
Control_TS_8B,1,test,P,181,1,620,350,R,0,NONE,0,1,212982,950
Control_TS_8B,1,test,P,182,1,620,350,P,1,<rshift>,1,1,213982,490
Control_TS_8B,1,test,P,183,3,620,550,P,1,<rshift>,1,1,214982,515
Control_TS_8B,1,test,P,184,1,620,350,P,1,<rshift>,1,1,215982,452
Control_TS_8B,1,test,P,185,1,620,350,P,1,<rshift>,1,1,216982,445
Control_TS_8B,1,test,P,186,3,620,550,P,1,<rshift>,1,1,217982,550
Control_TS_8B,1,test,P,187,2,820,350,R,0,NONE,0,1,218982,950
Control_TS_8B,1,test,P,188,3,620,550,P,1,<rshift>,1,1,219981,651
Control_TS_8B,1,test,P,189,4,820,550,P,1,<rshift>,1,1,220981,488
Control_TS_8B,1,test,P,190,4,820,550,P,1,<rshift>,1,1,221981,374
Control_TS_8B,1,test,P,191,3,620,550,P,1,<rshift>,1,1,222981,530
Control_TS_8B,1,test,P,192,2,820,350,P,1,<rshift>,1,1,223981,540
Control_TS_8B,1,test,P,193,2,820,350,P,1,<rshift>,1,1,224981,514
Control_TS_8B,1,test,P,194,2,820,350,P,1,<rshift>,1,1,225981,564
Control_TS_8B,1,test,P,195,1,620,350,P,1,<rshift>,1,1,226982,640
Control_TS_8B,1,test,P,196,3,620,550,P,1,<rshift>,1,1,227982,631
Control_TS_8B,1,test,P,197,3,620,550,R,0,NONE,0,1,228982,950
Control_TS_8B,1,test,P,198,1,620,350,P,1,<rshift>,1,1,229982,515
Control_TS_8B,1,test,P,199,1,620,350,P,1,<rshift>,1,1,230982,377
Control_TS_8B,1,test,P,200,2,820,350,P,1,<rshift>,1,1,231982,473
Control_TS_8B,1,test,P,201,3,620,550,R,0,NONE,0,1,232982,950
Control_TS_8B,1,test,P,202,3,620,550,P,1,<rshift>,1,1,233982,649
Control_TS_8B,1,test,P,203,4,820,550,P,1,<rshift>,1,1,234982,478
Control_TS_8B,1,test,P,204,1,620,350,P,1,<rshift>,1,1,235982,494
Control_TS_8B,1,test,P,205,3,620,550,R,0,NONE,0,1,236982,950
Control_TS_8B,1,test,P,206,2,820,350,P,1,<rshift>,1,1,237982,411
Control_TS_8B,1,test,P,207,2,820,350,P,1,<rshift>,1,1,238982,447
Control_TS_8B,1,test,P,208,2,820,350,P,1,<rshift>,1,1,239982,369
Control_TS_8B,1,test,P,209,2,820,350,P,1,<rshift>,1,1,240982,376
Control_TS_8B,1,test,P,210,2,820,350,P,1,<rshift>,1,1,241982,398
Control_TS_8B,1,test,P,211,2,820,350,P,1,<rshift>,1,1,242982,421
Control_TS_8B,1,test,P,212,1,620,350,P,1,<rshift>,1,1,243982,669
Control_TS_8B,1,test,P,213,2,820,350,P,1,<rshift>,1,1,244982,523
Control_TS_8B,1,test,P,214,4,820,550,P,1,<rshift>,1,1,245982,469
Control_TS_8B,1,test,P,215,2,820,350,P,1,<rshift>,1,1,246982,486
Control_TS_8B,1,test,P,216,2,820,350,P,1,<rshift>,1,1,247981,384
Control_TS_8B,1,test,P,217,3,620,550,P,1,<rshift>,1,1,248982,529
Control_TS_8B,1,test,P,218,3,620,550,P,1,<rshift>,1,1,249982,446
Control_TS_8B,1,test,P,219,2,820,350,P,1,<rshift>,1,1,250982,449
Control_TS_8B,1,test,P,220,1,620,350,P,1,<rshift>,1,1,251982,496
Control_TS_8B,1,test,P,221,1,620,350,P,1,<rshift>,1,1,252982,428
Control_TS_8B,1,test,P,222,1,620,350,P,1,<rshift>,1,1,253982,674
Control_TS_8B,1,test,P,223,2,820,350,P,1,NONE,0,0,254982,950
Control_TS_8B,1,test,P,224,2,820,350,P,1,<rshift>,1,1,255982,548
Control_TS_8B,1,test,P,225,1,620,350,P,1,<rshift>,1,1,256982,440
Control_TS_8B,1,test,P,226,4,820,550,P,1,<rshift>,1,1,257982,437
Control_TS_8B,1,test,P,227,1,620,350,P,1,<rshift>,1,1,258982,384
Control_TS_8B,1,test,P,228,2,820,350,P,1,<rshift>,1,1,259982,337
Control_TS_8B,1,test,P,229,4,820,550,P,1,<rshift>,1,1,260982,353
Control_TS_8B,1,test,P,230,4,820,550,P,1,<rshift>,1,1,261982,450
Control_TS_8B,1,test,P,231,1,620,350,R,0,<rshift>,1,0,262982,428
Control_TS_8B,1,test,P,232,2,820,350,P,1,<rshift>,1,1,263982,545
Control_TS_8B,1,test,P,233,3,620,550,P,1,<rshift>,1,1,264982,473
Control_TS_8B,1,test,P,234,1,620,350,P,1,<rshift>,1,1,265982,518
Control_TS_8B,1,test,P,235,2,820,350,R,0,NONE,0,1,266982,950
Control_TS_8B,1,test,P,236,3,620,550,P,1,<rshift>,1,1,267982,452
Control_TS_8B,1,test,P,237,4,820,550,R,0,NONE,0,1,268982,950
Control_TS_8B,1,test,P,238,2,820,350,P,1,<rshift>,1,1,269982,321
Control_TS_8B,1,test,P,239,2,820,350,R,0,NONE,0,1,270982,950
Control_TS_8B,1,test,P,240,1,620,350,P,1,<rshift>,1,1,271982,372
Control_TS_8B,1,test,P,241,1,620,350,P,1,<rshift>,1,1,272982,397
Control_TS_8B,1,test,P,242,4,820,550,P,1,<rshift>,1,1,273982,515
Control_TS_8B,1,test,P,243,1,620,350,P,1,<rshift>,1,1,274982,555
Control_TS_8B,1,test,P,244,3,620,550,P,1,<rshift>,1,1,275982,461
Control_TS_8B,1,test,P,245,3,620,550,P,1,<rshift>,1,1,276982,472
Control_TS_8B,1,test,P,246,4,820,550,R,0,<rshift>,1,0,277982,379
Control_TS_8B,1,test,P,247,3,620,550,P,1,<rshift>,1,1,278982,451
Control_TS_8B,1,test,P,248,1,620,350,R,0,NONE,0,1,279982,950
Control_TS_8B,1,test,P,249,2,820,350,P,1,<rshift>,1,1,280982,491
Control_TS_8B,1,test,P,250,2,820,350,P,1,<rshift>,1,1,281982,395
Control_TS_8B,1,test,P,251,3,620,550,P,1,<rshift>,1,1,282982,455
Control_TS_8B,1,test,P,252,4,820,550,P,1,<rshift>,1,1,283982,448
Control_TS_8B,1,test,P,253,2,820,350,P,1,<rshift>,1,1,284982,466
Control_TS_8B,1,test,P,254,1,620,350,R,0,NONE,0,1,285982,950
Control_TS_8B,1,test,P,255,4,820,550,P,1,<rshift>,1,1,286982,460
Control_TS_8B,1,test,P,256,3,620,550,P,1,<rshift>,1,1,287982,447
Control_TS_8B,1,test,P,257,4,820,550,P,1,<rshift>,1,1,288982,395
Control_TS_8B,1,test,P,258,2,820,350,P,1,<rshift>,1,1,289982,465
Control_TS_8B,1,test,P,259,1,620,350,R,0,NONE,0,1,290982,950
Control_TS_8B,1,test,P,260,1,620,350,P,1,<rshift>,1,1,291982,583
Control_TS_8B,1,test,P,261,2,820,350,P,1,<rshift>,1,1,292982,457
Control_TS_8B,1,test,P,262,3,620,550,P,1,<rshift>,1,1,293982,405
Control_TS_8B,1,test,P,263,2,820,350,P,1,<rshift>,1,1,294982,388
Control_TS_8B,1,test,P,264,4,820,550,P,1,<rshift>,1,1,295982,366
Control_TS_8B,1,test,P,265,4,820,550,P,1,<rshift>,1,1,296982,314
Control_TS_8B,1,test,P,266,3,620,550,P,1,<rshift>,1,1,297982,381
Control_TS_8B,1,test,P,267,4,820,550,R,0,<rshift>,1,0,298982,539
Control_TS_8B,1,test,P,268,2,820,350,P,1,<rshift>,1,1,299982,658
Control_TS_8B,1,test,P,269,3,620,550,P,1,<rshift>,1,1,300982,397
Control_TS_8B,1,test,P,270,4,820,550,P,1,<rshift>,1,1,301982,587
Control_TS_8B,1,test,P,271,1,620,350,P,1,<rshift>,1,1,302982,378
Control_TS_8B,1,test,P,272,1,620,350,P,1,<rshift>,1,1,303981,373
Control_TS_8B,1,test,P,273,1,620,350,P,1,<rshift>,1,1,304982,351
Control_TS_8B,1,test,P,274,1,620,350,R,0,<rshift>,1,0,305982,344
Control_TS_8B,1,test,P,275,1,620,350,P,1,<rshift>,1,1,306982,514
Control_TS_8B,1,test,P,276,4,820,550,R,0,<rshift>,1,0,307982,411
Control_TS_8B,1,test,P,277,1,620,350,P,1,<rshift>,1,1,308982,423
Control_TS_8B,1,test,P,278,2,820,350,R,0,NONE,0,1,309982,950
Control_TS_8B,1,test,P,279,2,820,350,P,1,<rshift>,1,1,310982,539
Control_TS_8B,1,test,P,280,1,620,350,P,1,<rshift>,1,1,311982,427
Control_TS_8B,1,test,P,281,3,620,550,R,0,NONE,0,1,312982,950
Control_TS_8B,1,test,P,282,1,620,350,P,1,<rshift>,1,1,313982,465
Control_TS_8B,1,test,P,283,1,620,350,P,1,<rshift>,1,1,314982,589
Control_TS_8B,1,test,P,284,3,620,550,P,1,<rshift>,1,1,315982,453
Control_TS_8B,1,test,P,285,4,820,550,P,1,<rshift>,1,1,316982,444
Control_TS_8B,1,test,P,286,1,620,350,P,1,<rshift>,1,1,317982,429
Control_TS_8B,1,test,P,287,3,620,550,P,1,<rshift>,1,1,318982,405
Control_TS_8B,1,test,P,288,1,620,350,R,0,NONE,0,1,319982,950
Control_TS_8B,1,test,P,289,1,620,350,R,0,NONE,0,1,320982,950
Control_TS_8B,1,test,P,290,2,820,350,R,0,NONE,0,1,321982,950
Control_TS_8B,1,test,P,291,4,820,550,R,0,NONE,0,1,322982,950
Control_TS_8B,1,test,P,292,2,820,350,P,1,<rshift>,1,1,323982,490
Control_TS_8B,1,test,P,293,3,620,550,P,1,<rshift>,1,1,324982,533
Control_TS_8B,1,test,P,294,4,820,550,P,1,<rshift>,1,1,325982,444
Control_TS_8B,1,test,P,295,4,820,550,P,1,<rshift>,1,1,326982,380
Control_TS_8B,1,test,P,296,4,820,550,P,1,<rshift>,1,1,327982,403
Control_TS_8B,1,test,P,297,2,820,350,R,0,NONE,0,1,328982,950
Control_TS_8B,1,test,P,298,4,820,550,P,1,<rshift>,1,1,329982,587
Control_TS_8B,1,test,P,299,3,620,550,P,1,<rshift>,1,1,330982,460
Control_TS_8B,1,test,P,300,3,620,550,P,1,<rshift>,1,1,331982,368
Control_TS_8B,2,practice,R,1,4,820,550,R,1,<rshift>,1,1,362021,583
Control_TS_8B,2,practice,R,2,4,820,550,R,1,NONE,0,0,363021,950
Control_TS_8B,2,practice,R,3,1,620,350,R,1,<rshift>,1,1,365016,584
Control_TS_8B,2,practice,R,4,3,620,550,P,0,NONE,0,1,365615,950
Control_TS_8B,2,practice,R,5,1,620,350,R,1,NONE,0,0,366580,950
Control_TS_8B,2,practice,R,6,3,620,550,P,0,NONE,0,1,368573,950
Control_TS_8B,2,practice,R,7,1,620,350,R,1,NONE,0,0,369538,950
Control_TS_8B,2,practice,R,8,4,820,550,R,1,<rshift>,1,1,371531,543
Control_TS_8B,2,practice,R,9,1,620,350,R,1,NONE,0,0,372089,950
Control_TS_8B,2,practice,R,10,3,620,550,R,1,NONE,0,0,374082,950
Control_TS_8B,3,test,R,1,4,820,550,R,1,<rshift>,1,1,379427,568
Control_TS_8B,3,test,R,2,1,620,350,R,1,<rshift>,1,1,380427,355
Control_TS_8B,3,test,R,3,4,820,550,R,1,<rshift>,1,1,381427,398
Control_TS_8B,3,test,R,4,1,620,350,R,1,<rshift>,1,1,382427,362
Control_TS_8B,3,test,R,5,1,620,350,R,1,<rshift>,1,1,383427,435
Control_TS_8B,3,test,R,6,2,820,350,R,1,<rshift>,1,1,384427,525
Control_TS_8B,3,test,R,7,2,820,350,R,1,<rshift>,1,1,385427,446
Control_TS_8B,3,test,R,8,1,620,350,R,1,<rshift>,1,1,386427,427
Control_TS_8B,3,test,R,9,3,620,550,R,1,<rshift>,1,1,387427,432
Control_TS_8B,3,test,R,10,2,820,350,R,1,<rshift>,1,1,388427,454
Control_TS_8B,3,test,R,11,1,620,350,R,1,<rshift>,1,1,389427,432
Control_TS_8B,3,test,R,12,3,620,550,R,1,<rshift>,1,1,390427,428
Control_TS_8B,3,test,R,13,1,620,350,R,1,<rshift>,1,1,391427,426
Control_TS_8B,3,test,R,14,2,820,350,R,1,<rshift>,1,1,392427,363
Control_TS_8B,3,test,R,15,4,820,550,R,1,<rshift>,1,1,393427,349
Control_TS_8B,3,test,R,16,2,820,350,R,1,<rshift>,1,1,394427,514
Control_TS_8B,3,test,R,17,2,820,350,R,1,<rshift>,1,1,395427,422
Control_TS_8B,3,test,R,18,3,620,550,R,1,<rshift>,1,1,396426,487
Control_TS_8B,3,test,R,19,1,620,350,R,1,<rshift>,1,1,397427,426
Control_TS_8B,3,test,R,20,1,620,350,R,1,<rshift>,1,1,398427,435
Control_TS_8B,3,test,R,21,2,820,350,P,0,NONE,0,1,399427,950
Control_TS_8B,3,test,R,22,4,820,550,P,0,NONE,0,1,400426,950
Control_TS_8B,3,test,R,23,3,620,550,R,1,<rshift>,1,1,401427,558
Control_TS_8B,3,test,R,24,2,820,350,R,1,<rshift>,1,1,402427,428
Control_TS_8B,3,test,R,25,1,620,350,P,0,NONE,0,1,403427,950
Control_TS_8B,3,test,R,26,3,620,550,R,1,<rshift>,1,1,404427,416
Control_TS_8B,3,test,R,27,2,820,350,P,0,NONE,0,1,405427,950
Control_TS_8B,3,test,R,28,1,620,350,R,1,<rshift>,1,1,406427,402
Control_TS_8B,3,test,R,29,4,820,550,R,1,<rshift>,1,1,407427,412
Control_TS_8B,3,test,R,30,4,820,550,R,1,<rshift>,1,1,408427,438
Control_TS_8B,3,test,R,31,3,620,550,R,1,<rshift>,1,1,409427,515
Control_TS_8B,3,test,R,32,2,820,350,P,0,NONE,0,1,410427,950
Control_TS_8B,3,test,R,33,1,620,350,R,1,<rshift>,1,1,411427,338
Control_TS_8B,3,test,R,34,4,820,550,R,1,<rshift>,1,1,412427,424
Control_TS_8B,3,test,R,35,3,620,550,R,1,<rshift>,1,1,413427,395
Control_TS_8B,3,test,R,36,3,620,550,R,1,<rshift>,1,1,414427,426
Control_TS_8B,3,test,R,37,1,620,350,R,1,<rshift>,1,1,415427,387
Control_TS_8B,3,test,R,38,4,820,550,R,1,<rshift>,1,1,416427,445
Control_TS_8B,3,test,R,39,2,820,350,P,0,NONE,0,1,417427,950
Control_TS_8B,3,test,R,40,3,620,550,R,1,<rshift>,1,1,418427,347
Control_TS_8B,3,test,R,41,3,620,550,P,0,<rshift>,1,0,419427,402
Control_TS_8B,3,test,R,42,4,820,550,P,0,NONE,0,1,420427,950
Control_TS_8B,3,test,R,43,1,620,350,R,1,<rshift>,1,1,421427,468
Control_TS_8B,3,test,R,44,2,820,350,R,1,<rshift>,1,1,422427,402
Control_TS_8B,3,test,R,45,1,620,350,R,1,<rshift>,1,1,423427,481
Control_TS_8B,3,test,R,46,3,620,550,R,1,<rshift>,1,1,424427,515
Control_TS_8B,3,test,R,47,4,820,550,P,0,NONE,0,1,425427,950
Control_TS_8B,3,test,R,48,3,620,550,P,0,NONE,0,1,426427,950
Control_TS_8B,3,test,R,49,4,820,550,R,1,<rshift>,1,1,427427,517
Control_TS_8B,3,test,R,50,4,820,550,R,1,<rshift>,1,1,428427,445
Control_TS_8B,3,test,R,51,4,820,550,P,0,NONE,0,1,429427,950
Control_TS_8B,3,test,R,52,1,620,350,P,0,NONE,0,1,430427,950
Control_TS_8B,3,test,R,53,2,820,350,R,1,<rshift>,1,1,431427,598
Control_TS_8B,3,test,R,54,3,620,550,P,0,NONE,0,1,432427,950
Control_TS_8B,3,test,R,55,2,820,350,R,1,<rshift>,1,1,433427,433
Control_TS_8B,3,test,R,56,2,820,350,R,1,<rshift>,1,1,434427,430
Control_TS_8B,3,test,R,57,1,620,350,R,1,<rshift>,1,1,435427,369
Control_TS_8B,3,test,R,58,2,820,350,R,1,<rshift>,1,1,436427,379
Control_TS_8B,3,test,R,59,2,820,350,R,1,<rshift>,1,1,437427,356
Control_TS_8B,3,test,R,60,1,620,350,R,1,<rshift>,1,1,438427,527
Control_TS_8B,3,test,R,61,1,620,350,R,1,<rshift>,1,1,439427,352
Control_TS_8B,3,test,R,62,3,620,550,R,1,<rshift>,1,1,440427,485
Control_TS_8B,3,test,R,63,2,820,350,R,1,<rshift>,1,1,441427,373
Control_TS_8B,3,test,R,64,2,820,350,R,1,<rshift>,1,1,442427,341
Control_TS_8B,3,test,R,65,1,620,350,R,1,<rshift>,1,1,443427,411
Control_TS_8B,3,test,R,66,4,820,550,R,1,<rshift>,1,1,444427,387
Control_TS_8B,3,test,R,67,3,620,550,R,1,<rshift>,1,1,445427,360
Control_TS_8B,3,test,R,68,4,820,550,P,0,<rshift>,1,0,446427,356
Control_TS_8B,3,test,R,69,4,820,550,R,1,<rshift>,1,1,447427,520
Control_TS_8B,3,test,R,70,2,820,350,P,0,NONE,0,1,448427,950
Control_TS_8B,3,test,R,71,2,820,350,R,1,<rshift>,1,1,449427,479
Control_TS_8B,3,test,R,72,4,820,550,R,1,<rshift>,1,1,450427,441
Control_TS_8B,3,test,R,73,3,620,550,R,1,<rshift>,1,1,451427,461
Control_TS_8B,3,test,R,74,3,620,550,P,0,NONE,0,1,452427,950
Control_TS_8B,3,test,R,75,3,620,550,P,0,NONE,0,1,453427,950
Control_TS_8B,3,test,R,76,1,620,350,R,1,<rshift>,1,1,454427,384
Control_TS_8B,3,test,R,77,3,620,550,R,1,<rshift>,1,1,455427,424
Control_TS_8B,3,test,R,78,3,620,550,R,1,<rshift>,1,1,456427,517
Control_TS_8B,3,test,R,79,1,620,350,R,1,<rshift>,1,1,457427,426
Control_TS_8B,3,test,R,80,1,620,350,P,0,NONE,0,1,458427,950
Control_TS_8B,3,test,R,81,2,820,350,R,1,<rshift>,1,1,459427,357
Control_TS_8B,3,test,R,82,2,820,350,R,1,<rshift>,1,1,460427,406
Control_TS_8B,3,test,R,83,1,620,350,R,1,<rshift>,1,1,461427,525
Control_TS_8B,3,test,R,84,1,620,350,R,1,<rshift>,1,1,462427,430
Control_TS_8B,3,test,R,85,4,820,550,R,1,<rshift>,1,1,463427,428
Control_TS_8B,3,test,R,86,2,820,350,P,0,NONE,0,1,464427,950
Control_TS_8B,3,test,R,87,1,620,350,R,1,<rshift>,1,1,465427,312
Control_TS_8B,3,test,R,88,2,820,350,R,1,<rshift>,1,1,466427,283
Control_TS_8B,3,test,R,89,4,820,550,R,1,<rshift>,1,1,467427,368
Control_TS_8B,3,test,R,90,3,620,550,R,1,<rshift>,1,1,468427,406
Control_TS_8B,3,test,R,91,2,820,350,R,1,<rshift>,1,1,469427,336
Control_TS_8B,3,test,R,92,2,820,350,R,1,<rshift>,1,1,470427,458
Control_TS_8B,3,test,R,93,3,620,550,P,0,<rshift>,1,0,471427,434
Control_TS_8B,3,test,R,94,2,820,350,R,1,<rshift>,1,1,472427,481
Control_TS_8B,3,test,R,95,4,820,550,R,1,<rshift>,1,1,473427,548
Control_TS_8B,3,test,R,96,3,620,550,R,1,<rshift>,1,1,474427,551
Control_TS_8B,3,test,R,97,3,620,550,P,0,NONE,0,1,475427,950
Control_TS_8B,3,test,R,98,1,620,350,R,1,<rshift>,1,1,476427,458
Control_TS_8B,3,test,R,99,2,820,350,R,1,<rshift>,1,1,477427,514
Control_TS_8B,3,test,R,100,2,820,350,R,1,<rshift>,1,1,478427,514
Control_TS_8B,3,test,R,101,2,820,350,R,1,<rshift>,1,1,479427,423
Control_TS_8B,3,test,R,102,1,620,350,R,1,<rshift>,1,1,480427,703
Control_TS_8B,3,test,R,103,2,820,350,R,1,<rshift>,1,1,481427,515
Control_TS_8B,3,test,R,104,3,620,550,P,0,NONE,0,1,482427,950
Control_TS_8B,3,test,R,105,1,620,350,R,1,<rshift>,1,1,483427,458
Control_TS_8B,3,test,R,106,1,620,350,R,1,<rshift>,1,1,484427,411
Control_TS_8B,3,test,R,107,2,820,350,R,1,<rshift>,1,1,485427,432
Control_TS_8B,3,test,R,108,4,820,550,R,1,<rshift>,1,1,486427,469
Control_TS_8B,3,test,R,109,2,820,350,R,1,<rshift>,1,1,487427,674
Control_TS_8B,3,test,R,110,1,620,350,P,0,NONE,0,1,488427,950
Control_TS_8B,3,test,R,111,2,820,350,R,1,<rshift>,1,1,489427,371
Control_TS_8B,3,test,R,112,3,620,550,R,1,<rshift>,1,1,490427,436
Control_TS_8B,3,test,R,113,4,820,550,P,0,<rshift>,1,0,491427,303
Control_TS_8B,3,test,R,114,2,820,350,R,1,<rshift>,1,1,492427,417
Control_TS_8B,3,test,R,115,1,620,350,R,1,<rshift>,1,1,493427,518
Control_TS_8B,3,test,R,116,2,820,350,R,1,<rshift>,1,1,494427,445
Control_TS_8B,3,test,R,117,4,820,550,P,0,NONE,0,1,495427,950
Control_TS_8B,3,test,R,118,3,620,550,R,1,<rshift>,1,1,496427,389
Control_TS_8B,3,test,R,119,1,620,350,R,1,<rshift>,1,1,497426,659
Control_TS_8B,3,test,R,120,3,620,550,R,1,<rshift>,1,1,498427,730
Control_TS_8B,3,test,R,121,1,620,350,R,1,<rshift>,1,1,499427,453
Control_TS_8B,3,test,R,122,4,820,550,R,1,<rshift>,1,1,500427,386
Control_TS_8B,3,test,R,123,2,820,350,R,1,<rshift>,1,1,501427,464
Control_TS_8B,3,test,R,124,4,820,550,R,1,<rshift>,1,1,502427,399
Control_TS_8B,3,test,R,125,1,620,350,R,1,<rshift>,1,1,503427,379
Control_TS_8B,3,test,R,126,3,620,550,R,1,<rshift>,1,1,504427,350
Control_TS_8B,3,test,R,127,2,820,350,R,1,<rshift>,1,1,505427,312
Control_TS_8B,3,test,R,128,1,620,350,P,0,<rshift>,1,0,506427,398
Control_TS_8B,3,test,R,129,1,620,350,R,1,<rshift>,1,1,507427,515
Control_TS_8B,3,test,R,130,3,620,550,R,1,<rshift>,1,1,508427,489
Control_TS_8B,3,test,R,131,3,620,550,R,1,<rshift>,1,1,509427,466
Control_TS_8B,3,test,R,132,2,820,350,P,0,NONE,0,1,510427,950
Control_TS_8B,3,test,R,133,4,820,550,P,0,NONE,0,1,511427,950
Control_TS_8B,3,test,R,134,3,620,550,P,0,NONE,0,1,512427,950
Control_TS_8B,3,test,R,135,1,620,350,P,0,NONE,0,1,513427,950
Control_TS_8B,3,test,R,136,3,620,550,R,1,<rshift>,1,1,514427,575
Control_TS_8B,3,test,R,137,1,620,350,R,1,<rshift>,1,1,515427,591
Control_TS_8B,3,test,R,138,4,820,550,P,0,NONE,0,1,516427,950
Control_TS_8B,3,test,R,139,4,820,550,R,1,<rshift>,1,1,517427,373
Control_TS_8B,3,test,R,140,3,620,550,P,0,NONE,0,1,518427,950
Control_TS_8B,3,test,R,141,3,620,550,R,1,<rshift>,1,1,519427,385
Control_TS_8B,3,test,R,142,4,820,550,R,1,<rshift>,1,1,520427,405
Control_TS_8B,3,test,R,143,2,820,350,R,1,<rshift>,1,1,521427,450
Control_TS_8B,3,test,R,144,1,620,350,P,0,NONE,0,1,522427,950
Control_TS_8B,3,test,R,145,1,620,350,R,1,<rshift>,1,1,523427,440
Control_TS_8B,3,test,R,146,3,620,550,R,1,<rshift>,1,1,524427,430
Control_TS_8B,3,test,R,147,2,820,350,R,1,<rshift>,1,1,525427,309
Control_TS_8B,3,test,R,148,3,620,550,R,1,<rshift>,1,1,526427,319
Control_TS_8B,3,test,R,149,1,620,350,R,1,<rshift>,1,1,527427,343
Control_TS_8B,3,test,R,150,1,620,350,R,1,<rshift>,1,1,528427,355
Control_TS_8B,3,test,R,151,3,620,550,R,1,<rshift>,1,1,529427,489
Control_TS_8B,3,test,R,152,2,820,350,R,1,<rshift>,1,1,530427,350
Control_TS_8B,3,test,R,153,1,620,350,R,1,<rshift>,1,1,531427,347
Control_TS_8B,3,test,R,154,2,820,350,R,1,<rshift>,1,1,532427,313
Control_TS_8B,3,test,R,155,2,820,350,P,0,NONE,0,1,533427,950
Control_TS_8B,3,test,R,156,4,820,550,R,1,<rshift>,1,1,534427,455
Control_TS_8B,3,test,R,157,2,820,350,R,1,<rshift>,1,1,535427,416
Control_TS_8B,3,test,R,158,1,620,350,R,1,<rshift>,1,1,536427,569
Control_TS_8B,3,test,R,159,3,620,550,R,1,<rshift>,1,1,537427,436
Control_TS_8B,3,test,R,160,3,620,550,R,1,<rshift>,1,1,538427,386
Control_TS_8B,3,test,R,161,1,620,350,R,1,<rshift>,1,1,539427,415
Control_TS_8B,3,test,R,162,3,620,550,R,1,<rshift>,1,1,540427,353
Control_TS_8B,3,test,R,163,2,820,350,R,1,<rshift>,1,1,541427,514
Control_TS_8B,3,test,R,164,4,820,550,P,0,<rshift>,1,0,542427,376
Control_TS_8B,3,test,R,165,1,620,350,R,1,<rshift>,1,1,543427,380
Control_TS_8B,3,test,R,166,3,620,550,R,1,<rshift>,1,1,544427,456
Control_TS_8B,3,test,R,167,4,820,550,R,1,<rshift>,1,1,545427,468
Control_TS_8B,3,test,R,168,3,620,550,R,1,<rshift>,1,1,546427,519
Control_TS_8B,3,test,R,169,1,620,350,P,0,NONE,0,1,547427,950
Control_TS_8B,3,test,R,170,2,820,350,P,0,<rshift>,1,0,548427,310
Control_TS_8B,3,test,R,171,3,620,550,R,1,<rshift>,1,1,549427,467
Control_TS_8B,3,test,R,172,1,620,350,R,1,<rshift>,1,1,550427,460
Control_TS_8B,3,test,R,173,3,620,550,R,1,<rshift>,1,1,551427,575
Control_TS_8B,3,test,R,174,3,620,550,P,0,NONE,0,1,552427,950
Control_TS_8B,3,test,R,175,4,820,550,R,1,<rshift>,1,1,553427,449
Control_TS_8B,3,test,R,176,1,620,350,R,1,<rshift>,1,1,554427,317
Control_TS_8B,3,test,R,177,3,620,550,R,1,<rshift>,1,1,555427,568
Control_TS_8B,3,test,R,178,2,820,350,R,1,<rshift>,1,1,556427,536
Control_TS_8B,3,test,R,179,3,620,550,R,1,<rshift>,1,1,557427,422
Control_TS_8B,3,test,R,180,1,620,350,R,1,<rshift>,1,1,558427,376
Control_TS_8B,3,test,R,181,2,820,350,R,1,<rshift>,1,1,559427,515
Control_TS_8B,3,test,R,182,2,820,350,R,1,<rshift>,1,1,560427,472
Control_TS_8B,3,test,R,183,1,620,350,R,1,<rshift>,1,1,561427,436
Control_TS_8B,3,test,R,184,2,820,350,R,1,<rshift>,1,1,562427,358
Control_TS_8B,3,test,R,185,1,620,350,R,1,<rshift>,1,1,563427,346
Control_TS_8B,3,test,R,186,4,820,550,R,1,<rshift>,1,1,564427,515
Control_TS_8B,3,test,R,187,4,820,550,R,1,<rshift>,1,1,565427,402
Control_TS_8B,3,test,R,188,1,620,350,P,0,NONE,0,1,566427,950
Control_TS_8B,3,test,R,189,3,620,550,R,1,<rshift>,1,1,567427,414
Control_TS_8B,3,test,R,190,3,620,550,P,0,NONE,0,1,568427,950
Control_TS_8B,3,test,R,191,4,820,550,P,0,NONE,0,1,569427,950
Control_TS_8B,3,test,R,192,4,820,550,R,1,<rshift>,1,1,570427,584
Control_TS_8B,3,test,R,193,4,820,550,P,0,NONE,0,1,571427,950
Control_TS_8B,3,test,R,194,3,620,550,R,1,<rshift>,1,1,572427,483
Control_TS_8B,3,test,R,195,2,820,350,R,1,<rshift>,1,1,573427,469
Control_TS_8B,3,test,R,196,1,620,350,R,1,<rshift>,1,1,574427,480
Control_TS_8B,3,test,R,197,2,820,350,R,1,<rshift>,1,1,575427,364
Control_TS_8B,3,test,R,198,3,620,550,R,1,<rshift>,1,1,576427,391
Control_TS_8B,3,test,R,199,2,820,350,R,1,<rshift>,1,1,577427,347
Control_TS_8B,3,test,R,200,4,820,550,R,1,<rshift>,1,1,578427,389
Control_TS_8B,3,test,R,201,3,620,550,R,1,<rshift>,1,1,579427,403
Control_TS_8B,3,test,R,202,1,620,350,R,1,<rshift>,1,1,580427,519
Control_TS_8B,3,test,R,203,4,820,550,R,1,<rshift>,1,1,581427,421
Control_TS_8B,3,test,R,204,1,620,350,R,1,<rshift>,1,1,582427,442
Control_TS_8B,3,test,R,205,4,820,550,P,0,NONE,0,1,583427,950
Control_TS_8B,3,test,R,206,4,820,550,R,1,<rshift>,1,1,584427,433
Control_TS_8B,3,test,R,207,1,620,350,P,0,<rshift>,1,0,585427,374
Control_TS_8B,3,test,R,208,1,620,350,R,1,<rshift>,1,1,586427,494
Control_TS_8B,3,test,R,209,4,820,550,P,0,NONE,0,1,587427,950
Control_TS_8B,3,test,R,210,3,620,550,R,1,<rshift>,1,1,588427,454
Control_TS_8B,3,test,R,211,4,820,550,R,1,<rshift>,1,1,589427,473
Control_TS_8B,3,test,R,212,4,820,550,R,1,<rshift>,1,1,590427,489
Control_TS_8B,3,test,R,213,3,620,550,R,1,<rshift>,1,1,591427,496
Control_TS_8B,3,test,R,214,2,820,350,P,0,<rshift>,1,0,592427,455
Control_TS_8B,3,test,R,215,4,820,550,R,1,<rshift>,1,1,593427,592
Control_TS_8B,3,test,R,216,1,620,350,P,0,NONE,0,1,594427,950
Control_TS_8B,3,test,R,217,4,820,550,R,1,<rshift>,1,1,595427,532
Control_TS_8B,3,test,R,218,2,820,350,R,1,<rshift>,1,1,596427,438
Control_TS_8B,3,test,R,219,1,620,350,R,1,<rshift>,1,1,597427,564
Control_TS_8B,3,test,R,220,2,820,350,R,1,<rshift>,1,1,598427,474
Control_TS_8B,3,test,R,221,1,620,350,R,1,<rshift>,1,1,599427,415
Control_TS_8B,3,test,R,222,4,820,550,R,1,<rshift>,1,1,600427,421
Control_TS_8B,3,test,R,223,1,620,350,P,0,NONE,0,1,601427,950
Control_TS_8B,3,test,R,224,2,820,350,R,1,<rshift>,1,1,602427,321
Control_TS_8B,3,test,R,225,4,820,550,R,1,<rshift>,1,1,603427,382
Control_TS_8B,3,test,R,226,1,620,350,R,1,<rshift>,1,1,604427,374
Control_TS_8B,3,test,R,227,4,820,550,R,1,<rshift>,1,1,605427,515
Control_TS_8B,3,test,R,228,3,620,550,P,0,<rshift>,1,0,606427,407
Control_TS_8B,3,test,R,229,4,820,550,R,1,<rshift>,1,1,607426,537
Control_TS_8B,3,test,R,230,4,820,550,R,1,<rshift>,1,1,608427,541
Control_TS_8B,3,test,R,231,3,620,550,R,1,<rshift>,1,1,609427,573
Control_TS_8B,3,test,R,232,3,620,550,R,1,<rshift>,1,1,610427,484
Control_TS_8B,3,test,R,233,4,820,550,R,1,<rshift>,1,1,611427,472
Control_TS_8B,3,test,R,234,1,620,350,R,1,<rshift>,1,1,612427,532
Control_TS_8B,3,test,R,235,1,620,350,P,0,NONE,0,1,613427,950
Control_TS_8B,3,test,R,236,1,620,350,R,1,<rshift>,1,1,614427,440
Control_TS_8B,3,test,R,237,4,820,550,R,1,<rshift>,1,1,615427,539
Control_TS_8B,3,test,R,238,4,820,550,R,1,<rshift>,1,1,616427,643
Control_TS_8B,3,test,R,239,2,820,350,P,0,NONE,0,1,617427,950
Control_TS_8B,3,test,R,240,1,620,350,R,1,<rshift>,1,1,618427,448
Control_TS_8B,3,test,R,241,4,820,550,R,1,<rshift>,1,1,619427,519
Control_TS_8B,3,test,R,242,3,620,550,R,1,<rshift>,1,1,620427,403
Control_TS_8B,3,test,R,243,3,620,550,R,1,<rshift>,1,1,621427,363
Control_TS_8B,3,test,R,244,4,820,550,R,1,<rshift>,1,1,622427,402
Control_TS_8B,3,test,R,245,3,620,550,R,1,<rshift>,1,1,623427,426
Control_TS_8B,3,test,R,246,4,820,550,R,1,<rshift>,1,1,624427,361
Control_TS_8B,3,test,R,247,2,820,350,R,1,<rshift>,1,1,625427,407
Control_TS_8B,3,test,R,248,2,820,350,R,1,<rshift>,1,1,626427,385
Control_TS_8B,3,test,R,249,1,620,350,R,1,<rshift>,1,1,627427,434
Control_TS_8B,3,test,R,250,4,820,550,R,1,<rshift>,1,1,628427,437
Control_TS_8B,3,test,R,251,4,820,550,P,0,<rshift>,1,0,629427,352
Control_TS_8B,3,test,R,252,4,820,550,R,1,<rshift>,1,1,630427,413
Control_TS_8B,3,test,R,253,3,620,550,R,1,<rshift>,1,1,631427,429
Control_TS_8B,3,test,R,254,2,820,350,R,1,<rshift>,1,1,632427,351
Control_TS_8B,3,test,R,255,3,620,550,R,1,<rshift>,1,1,633427,368
Control_TS_8B,3,test,R,256,2,820,350,R,1,<rshift>,1,1,634427,310
Control_TS_8B,3,test,R,257,4,820,550,P,0,NONE,0,1,635427,950
Control_TS_8B,3,test,R,258,3,620,550,R,1,<rshift>,1,1,636427,344
Control_TS_8B,3,test,R,259,4,820,550,R,1,<rshift>,1,1,637427,401
Control_TS_8B,3,test,R,260,1,620,350,R,1,<rshift>,1,1,638427,310
Control_TS_8B,3,test,R,261,4,820,550,R,1,<rshift>,1,1,639427,380
Control_TS_8B,3,test,R,262,1,620,350,R,1,<rshift>,1,1,640427,367
Control_TS_8B,3,test,R,263,2,820,350,R,1,<rshift>,1,1,641427,375
Control_TS_8B,3,test,R,264,2,820,350,R,1,<rshift>,1,1,642427,470
Control_TS_8B,3,test,R,265,3,620,550,R,1,<rshift>,1,1,643427,311
Control_TS_8B,3,test,R,266,1,620,350,P,0,<rshift>,1,0,644427,344
Control_TS_8B,3,test,R,267,2,820,350,R,1,<rshift>,1,1,645427,328
Control_TS_8B,3,test,R,268,3,620,550,P,0,<rshift>,1,0,646427,361
Control_TS_8B,3,test,R,269,4,820,550,R,1,<rshift>,1,1,647427,466
Control_TS_8B,3,test,R,270,1,620,350,R,1,<rshift>,1,1,648427,514
Control_TS_8B,3,test,R,271,1,620,350,R,1,<rshift>,1,1,649427,481
Control_TS_8B,3,test,R,272,3,620,550,R,1,<rshift>,1,1,650427,535
Control_TS_8B,3,test,R,273,4,820,550,R,1,<rshift>,1,1,651427,493
Control_TS_8B,3,test,R,274,1,620,350,P,0,NONE,0,1,652427,950
Control_TS_8B,3,test,R,275,1,620,350,R,1,<rshift>,1,1,653427,477
Control_TS_8B,3,test,R,276,4,820,550,R,1,<rshift>,1,1,654427,330
Control_TS_8B,3,test,R,277,4,820,550,R,1,<rshift>,1,1,655427,358
Control_TS_8B,3,test,R,278,3,620,550,R,1,<rshift>,1,1,656427,483
Control_TS_8B,3,test,R,279,4,820,550,P,0,NONE,0,1,657427,950
Control_TS_8B,3,test,R,280,4,820,550,R,1,<rshift>,1,1,658427,407
Control_TS_8B,3,test,R,281,4,820,550,R,1,<rshift>,1,1,659427,488
Control_TS_8B,3,test,R,282,4,820,550,P,0,NONE,0,1,660427,950
Control_TS_8B,3,test,R,283,1,620,350,R,1,<rshift>,1,1,661427,358
Control_TS_8B,3,test,R,284,1,620,350,R,1,<rshift>,1,1,662427,515
Control_TS_8B,3,test,R,285,4,820,550,R,1,<rshift>,1,1,663427,581
Control_TS_8B,3,test,R,286,3,620,550,P,0,NONE,0,1,664427,950
Control_TS_8B,3,test,R,287,1,620,350,P,0,<rshift>,1,0,665427,354
Control_TS_8B,3,test,R,288,3,620,550,R,1,<rshift>,1,1,666427,462
Control_TS_8B,3,test,R,289,2,820,350,R,1,<rshift>,1,1,667427,496
Control_TS_8B,3,test,R,290,4,820,550,R,1,<rshift>,1,1,668427,552
Control_TS_8B,3,test,R,291,1,620,350,R,1,<rshift>,1,1,669427,379
Control_TS_8B,3,test,R,292,4,820,550,R,1,<rshift>,1,1,670427,515
Control_TS_8B,3,test,R,293,1,620,350,R,1,<rshift>,1,1,671427,515
Control_TS_8B,3,test,R,294,1,620,350,R,1,<rshift>,1,1,672427,489
Control_TS_8B,3,test,R,295,3,620,550,R,1,<rshift>,1,1,673427,466
Control_TS_8B,3,test,R,296,3,620,550,R,1,<rshift>,1,1,674427,426
Control_TS_8B,3,test,R,297,3,620,550,R,1,<rshift>,1,1,675427,448
Control_TS_8B,3,test,R,298,1,620,350,R,1,<rshift>,1,1,676427,495
Control_TS_8B,3,test,R,299,1,620,350,R,1,<rshift>,1,1,677427,465
Control_TS_8B,3,test,R,300,2,820,350,R,1,<rshift>,1,1,678427,492
