subnum,block,type,correctresponse,trial,choice,x,y,stim,present,response,responded,corr,starttime,rt
Control_TS_23_A,0,practice,P,1,1,620,350,R,0,NONE,0,1,6991,950
Control_TS_23_A,0,practice,P,2,3,620,550,P,1,<rshift>,1,1,7989,470
Control_TS_23_A,0,practice,P,3,1,620,350,P,1,<rshift>,1,1,8991,494
Control_TS_23_A,0,practice,P,4,3,620,550,P,1,<rshift>,1,1,9989,406
Control_TS_23_A,0,practice,P,5,1,620,350,P,1,<rshift>,1,1,10991,305
Control_TS_23_A,0,practice,P,6,4,820,550,P,1,<rshift>,1,1,11988,340
Control_TS_23_A,0,practice,P,7,1,620,350,P,1,<rshift>,1,1,12990,309
Control_TS_23_A,0,practice,P,8,2,820,350,P,1,<rshift>,1,1,13990,397
Control_TS_23_A,0,practice,P,9,2,820,350,R,0,<rshift>,1,0,14988,474
Control_TS_23_A,0,practice,P,10,1,620,350,P,1,<rshift>,1,1,16476,556
Control_TS_23_A,1,test,P,1,4,820,550,R,0,<rshift>,1,0,23319,613
Control_TS_23_A,1,test,P,2,1,620,350,P,1,<rshift>,1,1,24319,450
Control_TS_23_A,1,test,P,3,2,820,350,P,1,<rshift>,1,1,25318,306
Control_TS_23_A,1,test,P,4,4,820,550,P,1,<rshift>,1,1,26317,399
Control_TS_23_A,1,test,P,5,4,820,550,R,0,NONE,0,1,27319,950
Control_TS_23_A,1,test,P,6,2,820,350,R,0,<rshift>,1,0,28319,407
Control_TS_23_A,1,test,P,7,4,820,550,R,0,NONE,0,1,29318,950
Control_TS_23_A,1,test,P,8,1,620,350,P,1,<rshift>,1,1,30319,400
Control_TS_23_A,1,test,P,9,4,820,550,P,1,<rshift>,1,1,31317,651
Control_TS_23_A,1,test,P,10,2,820,350,P,1,<rshift>,1,1,32318,411
Control_TS_23_A,1,test,P,11,1,620,350,P,1,<rshift>,1,1,33319,350
Control_TS_23_A,1,test,P,12,4,820,550,P,1,<rshift>,1,1,34317,546
Control_TS_23_A,1,test,P,13,3,620,550,P,1,<rshift>,1,1,35318,350
Control_TS_23_A,1,test,P,14,1,620,350,P,1,<rshift>,1,1,36318,352
Control_TS_23_A,1,test,P,15,1,620,350,P,1,<rshift>,1,1,37320,305
Control_TS_23_A,1,test,P,16,3,620,550,R,0,NONE,0,1,38317,951
Control_TS_23_A,1,test,P,17,2,820,350,R,0,NONE,0,1,39317,951
Control_TS_23_A,1,test,P,18,2,820,350,R,0,NONE,0,1,40317,951
Control_TS_23_A,1,test,P,19,3,620,550,P,1,<rshift>,1,1,41318,401
Control_TS_23_A,1,test,P,20,4,820,550,P,1,<rshift>,1,1,42321,412
Control_TS_23_A,1,test,P,21,2,820,350,P,1,<rshift>,1,1,43318,344
Control_TS_23_A,1,test,P,22,1,620,350,P,1,<rshift>,1,1,44320,320
Control_TS_23_A,1,test,P,23,1,620,350,P,1,<rshift>,1,1,45317,369
Control_TS_23_A,1,test,P,24,2,820,350,P,1,<rshift>,1,1,46318,275
Control_TS_23_A,1,test,P,25,3,620,550,P,1,<rshift>,1,1,47318,320
Control_TS_23_A,1,test,P,26,4,820,550,P,1,<rshift>,1,1,48319,323
Control_TS_23_A,1,test,P,27,1,620,350,R,0,<rshift>,1,0,49319,308
Control_TS_23_A,1,test,P,28,1,620,350,P,1,<rshift>,1,1,50317,529
Control_TS_23_A,1,test,P,29,3,620,550,P,1,<rshift>,1,1,51317,524
Control_TS_23_A,1,test,P,30,4,820,550,P,1,<rshift>,1,1,52317,334
Control_TS_23_A,1,test,P,31,1,620,350,P,1,<rshift>,1,1,53317,310
Control_TS_23_A,1,test,P,32,2,820,350,P,1,<rshift>,1,1,54317,326
Control_TS_23_A,1,test,P,33,1,620,350,P,1,<rshift>,1,1,55318,313
Control_TS_23_A,1,test,P,34,4,820,550,R,0,<rshift>,1,0,56319,333
Control_TS_23_A,1,test,P,35,1,620,350,P,1,<rshift>,1,1,57317,366
Control_TS_23_A,1,test,P,36,1,620,350,P,1,<rshift>,1,1,58319,378
Control_TS_23_A,1,test,P,37,1,620,350,P,1,<rshift>,1,1,59317,408
Control_TS_23_A,1,test,P,38,3,620,550,P,1,<rshift>,1,1,60317,545
Control_TS_23_A,1,test,P,39,4,820,550,P,1,<rshift>,1,1,61319,377
Control_TS_23_A,1,test,P,40,2,820,350,P,1,<rshift>,1,1,62320,353
Control_TS_23_A,1,test,P,41,4,820,550,P,1,<rshift>,1,1,63317,359
Control_TS_23_A,1,test,P,42,2,820,350,P,1,<rshift>,1,1,64317,348
Control_TS_23_A,1,test,P,43,1,620,350,P,1,<rshift>,1,1,65319,317
Control_TS_23_A,1,test,P,44,4,820,550,R,0,<rshift>,1,0,66318,335
Control_TS_23_A,1,test,P,45,1,620,350,R,0,<rshift>,1,0,67319,385
Control_TS_23_A,1,test,P,46,3,620,550,P,1,<rshift>,1,1,68318,487
Control_TS_23_A,1,test,P,47,3,620,550,P,1,<rshift>,1,1,69317,395
Control_TS_23_A,1,test,P,48,1,620,350,P,1,<rshift>,1,1,70319,321
Control_TS_23_A,1,test,P,49,1,620,350,P,1,<rshift>,1,1,71318,319
Control_TS_23_A,1,test,P,50,3,620,550,R,0,NONE,0,1,72317,950
Control_TS_23_A,1,test,P,51,2,820,350,R,0,<rshift>,1,0,73317,359
Control_TS_23_A,1,test,P,52,1,620,350,P,1,<rshift>,1,1,74319,482
Control_TS_23_A,1,test,P,53,2,820,350,P,1,<rshift>,1,1,75318,551
Control_TS_23_A,1,test,P,54,1,620,350,P,1,<rshift>,1,1,76319,443
Control_TS_23_A,1,test,P,55,4,820,550,P,1,<rshift>,1,1,77317,364
Control_TS_23_A,1,test,P,56,3,620,550,P,1,<rshift>,1,1,78319,354
Control_TS_23_A,1,test,P,57,1,620,350,P,1,<rshift>,1,1,79317,341
Control_TS_23_A,1,test,P,58,1,620,350,P,1,<rshift>,1,1,80320,392
Control_TS_23_A,1,test,P,59,3,620,550,P,1,<rshift>,1,1,81319,379
Control_TS_23_A,1,test,P,60,1,620,350,P,1,<rshift>,1,1,82319,380
Control_TS_23_A,1,test,P,61,3,620,550,P,1,<rshift>,1,1,83319,316
Control_TS_23_A,1,test,P,62,3,620,550,P,1,<rshift>,1,1,84319,354
Control_TS_23_A,1,test,P,63,1,620,350,P,1,<rshift>,1,1,85318,287
Control_TS_23_A,1,test,P,64,1,620,350,P,1,<rshift>,1,1,86319,299
Control_TS_23_A,1,test,P,65,2,820,350,P,1,<rshift>,1,1,87317,384
Control_TS_23_A,1,test,P,66,4,820,550,P,1,<rshift>,1,1,88317,324
Control_TS_23_A,1,test,P,67,4,820,550,P,1,<rshift>,1,1,89317,382
Control_TS_23_A,1,test,P,68,3,620,550,P,1,<rshift>,1,1,90319,376
Control_TS_23_A,1,test,P,69,4,820,550,R,0,NONE,0,1,91318,950
Control_TS_23_A,1,test,P,70,2,820,350,P,1,<rshift>,1,1,92317,592
Control_TS_23_A,1,test,P,71,1,620,350,R,0,NONE,0,1,93318,950
Control_TS_23_A,1,test,P,72,1,620,350,R,0,NONE,0,1,94318,950
Control_TS_23_A,1,test,P,73,1,620,350,P,1,<rshift>,1,1,95318,466
Control_TS_23_A,1,test,P,74,1,620,350,R,0,NONE,0,1,96317,951
Control_TS_23_A,1,test,P,75,3,620,550,P,1,<rshift>,1,1,97317,329
Control_TS_23_A,1,test,P,76,1,620,350,P,1,<rshift>,1,1,98319,394
Control_TS_23_A,1,test,P,77,2,820,350,P,1,<rshift>,1,1,99317,333
Control_TS_23_A,1,test,P,78,1,620,350,P,1,<rshift>,1,1,100317,320
Control_TS_23_A,1,test,P,79,1,620,350,P,1,<rshift>,1,1,101318,345
Control_TS_23_A,1,test,P,80,1,620,350,P,1,<rshift>,1,1,102319,416
Control_TS_23_A,1,test,P,81,4,820,550,R,0,NONE,0,1,103319,950
Control_TS_23_A,1,test,P,82,4,820,550,P,1,<rshift>,1,1,104317,336
Control_TS_23_A,1,test,P,83,2,820,350,P,1,<rshift>,1,1,105317,378
Control_TS_23_A,1,test,P,84,1,620,350,P,1,<rshift>,1,1,106319,342
Control_TS_23_A,1,test,P,85,4,820,550,R,0,<rshift>,1,0,107318,373
Control_TS_23_A,1,test,P,86,1,620,350,P,1,<rshift>,1,1,108317,438
Control_TS_23_A,1,test,P,87,1,620,350,P,1,<rshift>,1,1,109317,439
Control_TS_23_A,1,test,P,88,1,620,350,P,1,<rshift>,1,1,110319,311
Control_TS_23_A,1,test,P,89,3,620,550,P,1,<rshift>,1,1,111317,475
Control_TS_23_A,1,test,P,90,3,620,550,P,1,<rshift>,1,1,112317,415
Control_TS_23_A,1,test,P,91,1,620,350,P,1,<rshift>,1,1,113318,300
Control_TS_23_A,1,test,P,92,3,620,550,P,1,<rshift>,1,1,114317,368
Control_TS_23_A,1,test,P,93,2,820,350,P,1,<rshift>,1,1,115319,307
Control_TS_23_A,1,test,P,94,2,820,350,P,1,<rshift>,1,1,116319,444
Control_TS_23_A,1,test,P,95,2,820,350,P,1,<rshift>,1,1,117319,378
Control_TS_23_A,1,test,P,96,4,820,550,R,0,<rshift>,1,0,118320,380
Control_TS_23_A,1,test,P,97,3,620,550,R,0,NONE,0,1,119319,950
Control_TS_23_A,1,test,P,98,3,620,550,P,1,<rshift>,1,1,120317,536
Control_TS_23_A,1,test,P,99,4,820,550,P,1,<rshift>,1,1,121317,710
Control_TS_23_A,1,test,P,100,4,820,550,P,1,<rshift>,1,1,122319,440
Control_TS_23_A,1,test,P,101,4,820,550,P,1,<rshift>,1,1,123319,353
Control_TS_23_A,1,test,P,102,3,620,550,P,1,<rshift>,1,1,124319,373
Control_TS_23_A,1,test,P,103,4,820,550,P,1,<rshift>,1,1,125317,381
Control_TS_23_A,1,test,P,104,1,620,350,R,0,NONE,0,1,126317,951
Control_TS_23_A,1,test,P,105,4,820,550,P,1,<rshift>,1,1,127317,465
Control_TS_23_A,1,test,P,106,1,620,350,P,1,<rshift>,1,1,128319,477
Control_TS_23_A,1,test,P,107,3,620,550,P,1,<rshift>,1,1,129317,450
Control_TS_23_A,1,test,P,108,1,620,350,P,1,<rshift>,1,1,130319,466
Control_TS_23_A,1,test,P,109,1,620,350,R,0,<rshift>,1,0,131317,391
Control_TS_23_A,1,test,P,110,4,820,550,R,0,NONE,0,1,132317,950
Control_TS_23_A,1,test,P,111,1,620,350,P,1,<rshift>,1,1,133317,329
Control_TS_23_A,1,test,P,112,1,620,350,P,1,<rshift>,1,1,134319,394
Control_TS_23_A,1,test,P,113,4,820,550,R,0,NONE,0,1,135317,950
Control_TS_23_A,1,test,P,114,1,620,350,P,1,<rshift>,1,1,136318,338
Control_TS_23_A,1,test,P,115,1,620,350,P,1,<rshift>,1,1,137318,344
Control_TS_23_A,1,test,P,116,3,620,550,R,0,NONE,0,1,138319,951
Control_TS_23_A,1,test,P,117,4,820,550,P,1,<rshift>,1,1,139318,553
Control_TS_23_A,1,test,P,118,4,820,550,P,1,<rshift>,1,1,140319,404
Control_TS_23_A,1,test,P,119,4,820,550,P,1,<rshift>,1,1,141317,392
Control_TS_23_A,1,test,P,120,2,820,350,P,1,<rshift>,1,1,142319,413
Control_TS_23_A,1,test,P,121,1,620,350,P,1,<rshift>,1,1,143318,380
Control_TS_23_A,1,test,P,122,2,820,350,R,0,<rshift>,1,0,144317,355
Control_TS_23_A,1,test,P,123,4,820,550,P,1,<rshift>,1,1,145317,467
Control_TS_23_A,1,test,P,124,1,620,350,P,1,<rshift>,1,1,146318,401
Control_TS_23_A,1,test,P,125,3,620,550,P,1,<rshift>,1,1,147318,591
Control_TS_23_A,1,test,P,126,4,820,550,P,1,<rshift>,1,1,148320,480
Control_TS_23_A,1,test,P,127,4,820,550,P,1,<rshift>,1,1,149317,392
Control_TS_23_A,1,test,P,128,4,820,550,R,0,<rshift>,1,0,150318,373
Control_TS_23_A,1,test,P,129,1,620,350,P,1,<rshift>,1,1,151319,547
Control_TS_23_A,1,test,P,130,3,620,550,P,1,<rshift>,1,1,152319,423
Control_TS_23_A,1,test,P,131,1,620,350,P,1,<rshift>,1,1,153319,450
Control_TS_23_A,1,test,P,132,2,820,350,R,0,NONE,0,1,154318,950
Control_TS_23_A,1,test,P,133,2,820,350,P,1,<rshift>,1,1,155317,428
Control_TS_23_A,1,test,P,134,4,820,550,P,1,<rshift>,1,1,156319,398
Control_TS_23_A,1,test,P,135,2,820,350,P,1,<rshift>,1,1,157319,408
Control_TS_23_A,1,test,P,136,2,820,350,P,1,<rshift>,1,1,158317,334
Control_TS_23_A,1,test,P,137,2,820,350,P,1,<rshift>,1,1,159318,445
Control_TS_23_A,1,test,P,138,4,820,550,P,1,<rshift>,1,1,160317,401
Control_TS_23_A,1,test,P,139,4,820,550,P,1,<rshift>,1,1,161318,377
Control_TS_23_A,1,test,P,140,2,820,350,R,0,<rshift>,1,0,162317,335
Control_TS_23_A,1,test,P,141,1,620,350,P,1,<rshift>,1,1,163317,424
Control_TS_23_A,1,test,P,142,2,820,350,P,1,<rshift>,1,1,164320,399
Control_TS_23_A,1,test,P,143,3,620,550,P,1,<rshift>,1,1,165317,351
Control_TS_23_A,1,test,P,144,1,620,350,P,1,<rshift>,1,1,166319,375
Control_TS_23_A,1,test,P,145,1,620,350,P,1,<rshift>,1,1,167319,337
Control_TS_23_A,1,test,P,146,4,820,550,P,1,<rshift>,1,1,168317,449
Control_TS_23_A,1,test,P,147,3,620,550,P,1,<rshift>,1,1,169319,411
Control_TS_23_A,1,test,P,148,2,820,350,R,0,NONE,0,1,170317,951
Control_TS_23_A,1,test,P,149,3,620,550,P,1,<rshift>,1,1,171318,345
Control_TS_23_A,1,test,P,150,4,820,550,P,1,<rshift>,1,1,172319,348
Control_TS_23_A,1,test,P,151,1,620,350,P,1,<rshift>,1,1,173319,342
Control_TS_23_A,1,test,P,152,2,820,350,P,1,<rshift>,1,1,174317,420
Control_TS_23_A,1,test,P,153,3,620,550,P,1,<rshift>,1,1,175317,426
Control_TS_23_A,1,test,P,154,3,620,550,P,1,<rshift>,1,1,176319,445
Control_TS_23_A,1,test,P,155,4,820,550,P,1,<rshift>,1,1,177318,385
Control_TS_23_A,1,test,P,156,4,820,550,P,1,<rshift>,1,1,178319,397
Control_TS_23_A,1,test,P,157,4,820,550,P,1,<rshift>,1,1,179318,438
Control_TS_23_A,1,test,P,158,3,620,550,P,1,<rshift>,1,1,180319,370
Control_TS_23_A,1,test,P,159,2,820,350,P,1,<rshift>,1,1,181319,351
Control_TS_23_A,1,test,P,160,1,620,350,P,1,<rshift>,1,1,182317,351
Control_TS_23_A,1,test,P,161,1,620,350,P,1,<rshift>,1,1,183317,525
Control_TS_23_A,1,test,P,162,3,620,550,P,1,<rshift>,1,1,184317,393
Control_TS_23_A,1,test,P,163,4,820,550,R,0,<rshift>,1,0,185317,351
Control_TS_23_A,1,test,P,164,3,620,550,P,1,<rshift>,1,1,186317,452
Control_TS_23_A,1,test,P,165,1,620,350,P,1,<rshift>,1,1,187319,346
Control_TS_23_A,1,test,P,166,4,820,550,P,1,<rshift>,1,1,188317,403
Control_TS_23_A,1,test,P,167,1,620,350,R,0,<rshift>,1,0,189317,360
Control_TS_23_A,1,test,P,168,4,820,550,P,1,<rshift>,1,1,190318,449
Control_TS_23_A,1,test,P,169,1,620,350,P,1,<rshift>,1,1,191317,378
Control_TS_23_A,1,test,P,170,1,620,350,P,1,<rshift>,1,1,192319,555
Control_TS_23_A,1,test,P,171,1,620,350,P,1,<rshift>,1,1,193319,383
Control_TS_23_A,1,test,P,172,4,820,550,P,1,<rshift>,1,1,194318,611
Control_TS_23_A,1,test,P,173,2,820,350,P,1,<rshift>,1,1,195319,427
Control_TS_23_A,1,test,P,174,1,620,350,R,0,NONE,0,1,196319,951
Control_TS_23_A,1,test,P,175,2,820,350,P,1,<rshift>,1,1,197319,492
Control_TS_23_A,1,test,P,176,1,620,350,P,1,<rshift>,1,1,198318,453
Control_TS_23_A,1,test,P,177,1,620,350,P,1,<rshift>,1,1,199317,373
Control_TS_23_A,1,test,P,178,1,620,350,R,0,NONE,0,1,200317,950
Control_TS_23_A,1,test,P,179,1,620,350,P,1,<rshift>,1,1,201319,473
Control_TS_23_A,1,test,P,180,2,820,350,P,1,<rshift>,1,1,202318,374
Control_TS_23_A,1,test,P,181,4,820,550,P,1,<rshift>,1,1,203317,486
Control_TS_23_A,1,test,P,182,2,820,350,P,1,<rshift>,1,1,204317,424
Control_TS_23_A,1,test,P,183,4,820,550,P,1,<rshift>,1,1,205317,688
Control_TS_23_A,1,test,P,184,4,820,550,P,1,<rshift>,1,1,206317,469
Control_TS_23_A,1,test,P,185,3,620,550,P,1,<rshift>,1,1,207319,370
Control_TS_23_A,1,test,P,186,4,820,550,P,1,<rshift>,1,1,208319,414
Control_TS_23_A,1,test,P,187,4,820,550,P,1,<rshift>,1,1,209317,371
Control_TS_23_A,1,test,P,188,2,820,350,R,0,<rshift>,1,0,210319,329
Control_TS_23_A,1,test,P,189,4,820,550,P,1,<rshift>,1,1,211317,414
Control_TS_23_A,1,test,P,190,3,620,550,P,1,<rshift>,1,1,212317,337
Control_TS_23_A,1,test,P,191,3,620,550,P,1,<rshift>,1,1,213319,423
Control_TS_23_A,1,test,P,192,2,820,350,P,1,<rshift>,1,1,214319,322
Control_TS_23_A,1,test,P,193,1,620,350,P,1,<rshift>,1,1,215319,331
Control_TS_23_A,1,test,P,194,2,820,350,P,1,<rshift>,1,1,216319,347
Control_TS_23_A,1,test,P,195,2,820,350,P,1,<rshift>,1,1,217319,366
Control_TS_23_A,1,test,P,196,2,820,350,P,1,<rshift>,1,1,218317,374
Control_TS_23_A,1,test,P,197,2,820,350,R,0,<rshift>,1,0,219317,402
Control_TS_23_A,1,test,P,198,1,620,350,P,1,<rshift>,1,1,220317,366
Control_TS_23_A,1,test,P,199,2,820,350,R,0,<rshift>,1,0,221319,416
Control_TS_23_A,1,test,P,200,3,620,550,P,1,<rshift>,1,1,222317,470
Control_TS_23_A,1,test,P,201,4,820,550,P,1,<rshift>,1,1,223319,439
Control_TS_23_A,1,test,P,202,2,820,350,R,0,NONE,0,1,224318,950
Control_TS_23_A,1,test,P,203,1,620,350,R,0,NONE,0,1,225317,950
Control_TS_23_A,1,test,P,204,4,820,550,P,1,<rshift>,1,1,226317,408
Control_TS_23_A,1,test,P,205,2,820,350,R,0,<rshift>,1,0,227317,383
Control_TS_23_A,1,test,P,206,2,820,350,P,1,<rshift>,1,1,228319,505
Control_TS_23_A,1,test,P,207,4,820,550,P,1,<rshift>,1,1,229318,409
Control_TS_23_A,1,test,P,208,3,620,550,P,1,<rshift>,1,1,230319,566
Control_TS_23_A,1,test,P,209,2,820,350,R,0,NONE,0,1,231319,951
Control_TS_23_A,1,test,P,210,3,620,550,P,1,<rshift>,1,1,232317,389
Control_TS_23_A,1,test,P,211,3,620,550,R,0,NONE,0,1,233317,950
Control_TS_23_A,1,test,P,212,2,820,350,P,1,<rshift>,1,1,234319,455
Control_TS_23_A,1,test,P,213,2,820,350,P,1,<rshift>,1,1,235318,469
Control_TS_23_A,1,test,P,214,1,620,350,P,1,<rshift>,1,1,236317,360
Control_TS_23_A,1,test,P,215,2,820,350,P,1,<rshift>,1,1,237320,574
Control_TS_23_A,1,test,P,216,2,820,350,P,1,<rshift>,1,1,238317,463
Control_TS_23_A,1,test,P,217,4,820,550,P,1,<rshift>,1,1,239319,445
Control_TS_23_A,1,test,P,218,4,820,550,P,1,<rshift>,1,1,240317,422
Control_TS_23_A,1,test,P,219,2,820,350,P,1,<rshift>,1,1,241319,363
Control_TS_23_A,1,test,P,220,3,620,550,P,1,<rshift>,1,1,242319,468
Control_TS_23_A,1,test,P,221,2,820,350,P,1,<rshift>,1,1,243317,429
Control_TS_23_A,1,test,P,222,4,820,550,P,1,<rshift>,1,1,244319,345
Control_TS_23_A,1,test,P,223,3,620,550,P,1,<rshift>,1,1,245319,354
Control_TS_23_A,1,test,P,224,4,820,550,P,1,<rshift>,1,1,246317,388
Control_TS_23_A,1,test,P,225,3,620,550,P,1,<rshift>,1,1,247317,424
Control_TS_23_A,1,test,P,226,3,620,550,P,1,<rshift>,1,1,248317,402
Control_TS_23_A,1,test,P,227,1,620,350,R,0,NONE,0,1,249319,950
Control_TS_23_A,1,test,P,228,1,620,350,P,1,<rshift>,1,1,250317,532
Control_TS_23_A,1,test,P,229,3,620,550,R,0,<rshift>,1,0,251318,347
Control_TS_23_A,1,test,P,230,1,620,350,P,1,<rshift>,1,1,252319,366
Control_TS_23_A,1,test,P,231,2,820,350,P,1,<rshift>,1,1,253318,503
Control_TS_23_A,1,test,P,232,1,620,350,P,1,<rshift>,1,1,254317,345
Control_TS_23_A,1,test,P,233,4,820,550,P,1,<rshift>,1,1,255319,428
Control_TS_23_A,1,test,P,234,2,820,350,P,1,<rshift>,1,1,256318,488
Control_TS_23_A,1,test,P,235,3,620,550,P,1,<rshift>,1,1,257318,369
Control_TS_23_A,1,test,P,236,4,820,550,P,1,<rshift>,1,1,258320,351
Control_TS_23_A,1,test,P,237,4,820,550,P,1,<rshift>,1,1,259317,515
Control_TS_23_A,1,test,P,238,1,620,350,P,1,<rshift>,1,1,260319,365
Control_TS_23_A,1,test,P,239,2,820,350,P,1,<rshift>,1,1,261319,295
Control_TS_23_A,1,test,P,240,2,820,350,R,0,<rshift>,1,0,262318,323
Control_TS_23_A,1,test,P,241,2,820,350,P,1,<rshift>,1,1,263318,478
Control_TS_23_A,1,test,P,242,1,620,350,P,1,<rshift>,1,1,264319,344
Control_TS_23_A,1,test,P,243,1,620,350,P,1,<rshift>,1,1,265318,503
Control_TS_23_A,1,test,P,244,2,820,350,P,1,<rshift>,1,1,266318,495
Control_TS_23_A,1,test,P,245,2,820,350,P,1,<rshift>,1,1,267319,416
Control_TS_23_A,1,test,P,246,1,620,350,R,0,NONE,0,1,268318,950
Control_TS_23_A,1,test,P,247,4,820,550,P,1,<rshift>,1,1,269317,404
Control_TS_23_A,1,test,P,248,2,820,350,R,0,NONE,0,1,270320,950
Control_TS_23_A,1,test,P,249,2,820,350,R,0,NONE,0,1,271318,950
Control_TS_23_A,1,test,P,250,3,620,550,P,1,<rshift>,1,1,272318,545
Control_TS_23_A,1,test,P,251,2,820,350,R,0,<rshift>,1,0,273319,450
Control_TS_23_A,1,test,P,252,4,820,550,P,1,<rshift>,1,1,274318,488
Control_TS_23_A,1,test,P,253,1,620,350,P,1,<rshift>,1,1,275317,579
Control_TS_23_A,1,test,P,254,2,820,350,P,1,<rshift>,1,1,276319,434
Control_TS_23_A,1,test,P,255,2,820,350,P,1,<rshift>,1,1,277317,355
Control_TS_23_A,1,test,P,256,3,620,550,P,1,<rshift>,1,1,278320,456
Control_TS_23_A,1,test,P,257,1,620,350,R,0,NONE,0,1,279318,951
Control_TS_23_A,1,test,P,258,4,820,550,P,1,<rshift>,1,1,280317,465
Control_TS_23_A,1,test,P,259,1,620,350,P,1,<rshift>,1,1,281319,562
Control_TS_23_A,1,test,P,260,1,620,350,P,1,<rshift>,1,1,282319,438
Control_TS_23_A,1,test,P,261,1,620,350,P,1,<rshift>,1,1,283317,388
Control_TS_23_A,1,test,P,262,1,620,350,R,0,NONE,0,1,284319,950
Control_TS_23_A,1,test,P,263,3,620,550,P,1,<rshift>,1,1,285317,408
Control_TS_23_A,1,test,P,264,4,820,550,P,1,<rshift>,1,1,286317,457
Control_TS_23_A,1,test,P,265,4,820,550,P,1,<rshift>,1,1,287319,522
Control_TS_23_A,1,test,P,266,3,620,550,P,1,<rshift>,1,1,288317,426
Control_TS_23_A,1,test,P,267,4,820,550,P,1,<rshift>,1,1,289317,374
Control_TS_23_A,1,test,P,268,1,620,350,P,1,<rshift>,1,1,290319,385
Control_TS_23_A,1,test,P,269,1,620,350,P,1,<rshift>,1,1,291319,408
Control_TS_23_A,1,test,P,270,2,820,350,P,1,<rshift>,1,1,292320,441
Control_TS_23_A,1,test,P,271,1,620,350,P,1,<rshift>,1,1,293319,405
Control_TS_23_A,1,test,P,272,4,820,550,P,1,<rshift>,1,1,294318,386
Control_TS_23_A,1,test,P,273,3,620,550,P,1,<rshift>,1,1,295319,361
Control_TS_23_A,1,test,P,274,2,820,350,P,1,<rshift>,1,1,296318,415
Control_TS_23_A,1,test,P,275,4,820,550,P,1,<rshift>,1,1,297317,360
Control_TS_23_A,1,test,P,276,2,820,350,R,0,<rshift>,1,0,298319,418
Control_TS_23_A,1,test,P,277,4,820,550,P,1,<rshift>,1,1,299317,451
Control_TS_23_A,1,test,P,278,4,820,550,R,0,NONE,0,1,300319,950
Control_TS_23_A,1,test,P,279,4,820,550,R,0,NONE,0,1,301319,951
Control_TS_23_A,1,test,P,280,1,620,350,P,1,<rshift>,1,1,302317,607
Control_TS_23_A,1,test,P,281,1,620,350,P,1,<rshift>,1,1,303320,477
Control_TS_23_A,1,test,P,282,1,620,350,R,0,NONE,0,1,304319,950
Control_TS_23_A,1,test,P,283,4,820,550,R,0,NONE,0,1,305318,950
Control_TS_23_A,1,test,P,284,3,620,550,P,1,<rshift>,1,1,306318,468
Control_TS_23_A,1,test,P,285,2,820,350,R,0,NONE,0,1,307318,950
Control_TS_23_A,1,test,P,286,4,820,550,P,1,<rshift>,1,1,308319,469
Control_TS_23_A,1,test,P,287,1,620,350,P,1,<rshift>,1,1,309317,622
Control_TS_23_A,1,test,P,288,2,820,350,P,1,<rshift>,1,1,310319,477
Control_TS_23_A,1,test,P,289,2,820,350,P,1,<rshift>,1,1,311319,368
Control_TS_23_A,1,test,P,290,1,620,350,P,1,<rshift>,1,1,312320,396
Control_TS_23_A,1,test,P,291,1,620,350,P,1,<rshift>,1,1,313317,564
Control_TS_23_A,1,test,P,292,2,820,350,P,1,<rshift>,1,1,314319,422
Control_TS_23_A,1,test,P,293,1,620,350,P,1,<rshift>,1,1,315317,520
Control_TS_23_A,1,test,P,294,1,620,350,P,1,<rshift>,1,1,316317,373
Control_TS_23_A,1,test,P,295,4,820,550,R,0,NONE,0,1,317319,950
Control_TS_23_A,1,test,P,296,1,620,350,P,1,<rshift>,1,1,318317,388
Control_TS_23_A,1,test,P,297,4,820,550,P,1,<rshift>,1,1,319319,456
Control_TS_23_A,1,test,P,298,2,820,350,R,0,NONE,0,1,320319,950
Control_TS_23_A,1,test,P,299,3,620,550,P,1,<rshift>,1,1,321319,426
Control_TS_23_A,1,test,P,300,2,820,350,P,1,<rshift>,1,1,322317,337
Control_TS_23_A,2,practice,R,1,1,620,350,R,1,<rshift>,1,1,344545,756
Control_TS_23_A,2,practice,R,2,1,620,350,R,1,<rshift>,1,1,345543,386
Control_TS_23_A,2,practice,R,3,4,820,550,R,1,<rshift>,1,1,346544,357
Control_TS_23_A,2,practice,R,4,3,620,550,P,0,<rshift>,1,0,347544,323
Control_TS_23_A,2,practice,R,5,4,820,550,P,0,<rshift>,1,0,348880,639
Control_TS_23_A,2,practice,R,6,2,820,350,R,1,<rshift>,1,1,350531,398
Control_TS_23_A,2,practice,R,7,4,820,550,R,1,<rshift>,1,1,350937,829
Control_TS_23_A,2,practice,R,8,4,820,550,R,1,<rshift>,1,1,351769,628
Control_TS_23_A,2,practice,R,9,3,620,550,R,1,<rshift>,1,1,352546,395
Control_TS_23_A,2,practice,R,10,3,620,550,R,1,<rshift>,1,1,353544,327
Control_TS_23_A,3,test,R,1,2,820,350,R,1,<rshift>,1,1,358634,574
Control_TS_23_A,3,test,R,2,1,620,350,R,1,<rshift>,1,1,359634,357
Control_TS_23_A,3,test,R,3,1,620,350,R,1,<rshift>,1,1,360636,323
Control_TS_23_A,3,test,R,4,3,620,550,R,1,<rshift>,1,1,361634,352
Control_TS_23_A,3,test,R,5,2,820,350,P,0,<rshift>,1,0,362636,375
Control_TS_23_A,3,test,R,6,1,620,350,R,1,<rshift>,1,1,363633,383
Control_TS_23_A,3,test,R,7,3,620,550,P,0,<rshift>,1,0,364635,368
Control_TS_23_A,3,test,R,8,3,620,550,R,1,<rshift>,1,1,365635,551
Control_TS_23_A,3,test,R,9,3,620,550,R,1,<rshift>,1,1,366635,448
Control_TS_23_A,3,test,R,10,4,820,550,P,0,NONE,0,1,367635,950
Control_TS_23_A,3,test,R,11,2,820,350,P,0,<rshift>,1,0,368633,343
Control_TS_23_A,3,test,R,12,2,820,350,R,1,<rshift>,1,1,369633,544
Control_TS_23_A,3,test,R,13,4,820,550,R,1,<rshift>,1,1,370633,397
Control_TS_23_A,3,test,R,14,3,620,550,P,0,<rshift>,1,0,371633,375
Control_TS_23_A,3,test,R,15,4,820,550,R,1,<rshift>,1,1,372635,466
Control_TS_23_A,3,test,R,16,3,620,550,R,1,<rshift>,1,1,373635,505
Control_TS_23_A,3,test,R,17,4,820,550,R,1,<rshift>,1,1,374635,416
Control_TS_23_A,3,test,R,18,1,620,350,R,1,<rshift>,1,1,375635,431
Control_TS_23_A,3,test,R,19,4,820,550,R,1,<rshift>,1,1,376635,455
Control_TS_23_A,3,test,R,20,2,820,350,R,1,<rshift>,1,1,377633,398
Control_TS_23_A,3,test,R,21,4,820,550,R,1,<rshift>,1,1,378635,443
Control_TS_23_A,3,test,R,22,1,620,350,R,1,<rshift>,1,1,379633,488
Control_TS_23_A,3,test,R,23,1,620,350,R,1,<rshift>,1,1,380633,423
Control_TS_23_A,3,test,R,24,1,620,350,R,1,<rshift>,1,1,381634,320
Control_TS_23_A,3,test,R,25,2,820,350,R,1,<rshift>,1,1,382635,362
Control_TS_23_A,3,test,R,26,4,820,550,R,1,<rshift>,1,1,383634,391
Control_TS_23_A,3,test,R,27,3,620,550,R,1,<rshift>,1,1,384635,361
Control_TS_23_A,3,test,R,28,2,820,350,R,1,<rshift>,1,1,385633,345
Control_TS_23_A,3,test,R,29,4,820,550,R,1,<rshift>,1,1,386635,347
Control_TS_23_A,3,test,R,30,3,620,550,P,0,NONE,0,1,387634,950
Control_TS_23_A,3,test,R,31,4,820,550,P,0,NONE,0,1,388634,950
Control_TS_23_A,3,test,R,32,1,620,350,R,1,<rshift>,1,1,389634,366
Control_TS_23_A,3,test,R,33,3,620,550,P,0,<rshift>,1,0,390635,469
Control_TS_23_A,3,test,R,34,4,820,550,P,0,NONE,0,1,391633,950
Control_TS_23_A,3,test,R,35,4,820,550,R,1,<rshift>,1,1,392635,524
Control_TS_23_A,3,test,R,36,2,820,350,P,0,NONE,0,1,393633,950
Control_TS_23_A,3,test,R,37,4,820,550,R,1,<rshift>,1,1,394633,494
Control_TS_23_A,3,test,R,38,3,620,550,R,1,<rshift>,1,1,395635,460
Control_TS_23_A,3,test,R,39,2,820,350,R,1,<rshift>,1,1,396636,423
Control_TS_23_A,3,test,R,40,4,820,550,R,1,<rshift>,1,1,397635,422
Control_TS_23_A,3,test,R,41,2,820,350,P,0,NONE,0,1,398635,950
Control_TS_23_A,3,test,R,42,3,620,550,R,1,<rshift>,1,1,399634,452
Control_TS_23_A,3,test,R,43,4,820,550,R,1,<rshift>,1,1,400635,398
Control_TS_23_A,3,test,R,44,2,820,350,R,1,<rshift>,1,1,401633,379
Control_TS_23_A,3,test,R,45,3,620,550,R,1,<rshift>,1,1,402633,388
Control_TS_23_A,3,test,R,46,3,620,550,R,1,<rshift>,1,1,403635,448
Control_TS_23_A,3,test,R,47,4,820,550,P,0,<rshift>,1,0,404635,354
Control_TS_23_A,3,test,R,48,1,620,350,P,0,NONE,0,1,405634,950
Control_TS_23_A,3,test,R,49,4,820,550,R,1,<rshift>,1,1,406633,431
Control_TS_23_A,3,test,R,50,1,620,350,R,1,<rshift>,1,1,407634,434
Control_TS_23_A,3,test,R,51,1,620,350,R,1,<rshift>,1,1,408636,432
Control_TS_23_A,3,test,R,52,2,820,350,R,1,<rshift>,1,1,409635,413
Control_TS_23_A,3,test,R,53,4,820,550,R,1,<rshift>,1,1,410633,389
Control_TS_23_A,3,test,R,54,3,620,550,R,1,<rshift>,1,1,411634,375
Control_TS_23_A,3,test,R,55,1,620,350,R,1,<rshift>,1,1,412634,384
Control_TS_23_A,3,test,R,56,1,620,350,R,1,<rshift>,1,1,413633,412
Control_TS_23_A,3,test,R,57,1,620,350,R,1,<rshift>,1,1,414633,406
Control_TS_23_A,3,test,R,58,1,620,350,R,1,<rshift>,1,1,415633,358
Control_TS_23_A,3,test,R,59,3,620,550,R,1,<rshift>,1,1,416635,517
Control_TS_23_A,3,test,R,60,3,620,550,P,0,<rshift>,1,0,417634,406
Control_TS_23_A,3,test,R,61,1,620,350,R,1,<rshift>,1,1,418634,354
Control_TS_23_A,3,test,R,62,4,820,550,R,1,<rshift>,1,1,419634,408
Control_TS_23_A,3,test,R,63,2,820,350,R,1,<rshift>,1,1,420635,358
Control_TS_23_A,3,test,R,64,1,620,350,P,0,NONE,0,1,421634,950
Control_TS_23_A,3,test,R,65,2,820,350,R,1,<rshift>,1,1,422635,372
Control_TS_23_A,3,test,R,66,4,820,550,R,1,<rshift>,1,1,423635,388
Control_TS_23_A,3,test,R,67,3,620,550,R,1,<rshift>,1,1,424634,403
Control_TS_23_A,3,test,R,68,1,620,350,R,1,<rshift>,1,1,425633,392
Control_TS_23_A,3,test,R,69,4,820,550,P,0,<rshift>,1,0,426633,392
Control_TS_23_A,3,test,R,70,1,620,350,R,1,<rshift>,1,1,427635,434
Control_TS_23_A,3,test,R,71,4,820,550,R,1,<rshift>,1,1,428633,487
Control_TS_23_A,3,test,R,72,3,620,550,R,1,<rshift>,1,1,429635,454
Control_TS_23_A,3,test,R,73,4,820,550,R,1,<rshift>,1,1,430634,378
Control_TS_23_A,3,test,R,74,2,820,350,R,1,<rshift>,1,1,431636,351
Control_TS_23_A,3,test,R,75,4,820,550,R,1,<rshift>,1,1,432635,393
Control_TS_23_A,3,test,R,76,3,620,550,R,1,<rshift>,1,1,433636,417
Control_TS_23_A,3,test,R,77,3,620,550,P,0,NONE,0,1,434633,950
Control_TS_23_A,3,test,R,78,1,620,350,P,0,NONE,0,1,435634,950
Control_TS_23_A,3,test,R,79,3,620,550,R,1,<rshift>,1,1,436633,537
Control_TS_23_A,3,test,R,80,1,620,350,R,1,<rshift>,1,1,437633,406
Control_TS_23_A,3,test,R,81,3,620,550,R,1,<rshift>,1,1,438636,421
Control_TS_23_A,3,test,R,82,3,620,550,R,1,<rshift>,1,1,439635,434
Control_TS_23_A,3,test,R,83,1,620,350,R,1,<rshift>,1,1,440635,373
Control_TS_23_A,3,test,R,84,3,620,550,R,1,<rshift>,1,1,441633,372
Control_TS_23_A,3,test,R,85,2,820,350,R,1,<rshift>,1,1,442633,311
Control_TS_23_A,3,test,R,86,4,820,550,P,0,NONE,0,1,443633,950
Control_TS_23_A,3,test,R,87,2,820,350,R,1,<rshift>,1,1,444633,353
Control_TS_23_A,3,test,R,88,4,820,550,R,1,<rshift>,1,1,445633,536
Control_TS_23_A,3,test,R,89,3,620,550,R,1,<rshift>,1,1,446635,389
Control_TS_23_A,3,test,R,90,4,820,550,R,1,<rshift>,1,1,447633,384
Control_TS_23_A,3,test,R,91,2,820,350,R,1,<rshift>,1,1,448634,374
Control_TS_23_A,3,test,R,92,3,620,550,P,0,<rshift>,1,0,449633,372
Control_TS_23_A,3,test,R,93,2,820,350,R,1,<rshift>,1,1,450634,356
Control_TS_23_A,3,test,R,94,1,620,350,P,0,NONE,0,1,451636,950
Control_TS_23_A,3,test,R,95,2,820,350,R,1,<rshift>,1,1,452633,446
Control_TS_23_A,3,test,R,96,2,820,350,R,1,<rshift>,1,1,453634,402
Control_TS_23_A,3,test,R,97,3,620,550,R,1,<rshift>,1,1,454635,420
Control_TS_23_A,3,test,R,98,4,820,550,P,0,NONE,0,1,455635,950
Control_TS_23_A,3,test,R,99,1,620,350,R,1,<rshift>,1,1,456635,476
Control_TS_23_A,3,test,R,100,3,620,550,R,1,<rshift>,1,1,457635,468
Control_TS_23_A,3,test,R,101,1,620,350,R,1,<rshift>,1,1,458633,601
Control_TS_23_A,3,test,R,102,2,820,350,P,0,<rshift>,1,0,459634,360
Control_TS_23_A,3,test,R,103,1,620,350,P,0,<rshift>,1,0,460633,428
Control_TS_23_A,3,test,R,104,2,820,350,P,0,NONE,0,1,461635,950
Control_TS_23_A,3,test,R,105,3,620,550,R,1,<rshift>,1,1,462635,478
Control_TS_23_A,3,test,R,106,3,620,550,R,1,<rshift>,1,1,463635,456
Control_TS_23_A,3,test,R,107,3,620,550,P,0,NONE,0,1,464633,950
Control_TS_23_A,3,test,R,108,4,820,550,R,1,<rshift>,1,1,465633,349
Control_TS_23_A,3,test,R,109,2,820,350,R,1,<rshift>,1,1,466634,343
Control_TS_23_A,3,test,R,110,1,620,350,P,0,NONE,0,1,467635,950
Control_TS_23_A,3,test,R,111,2,820,350,R,1,<rshift>,1,1,468635,373
Control_TS_23_A,3,test,R,112,1,620,350,R,1,<rshift>,1,1,469634,382
Control_TS_23_A,3,test,R,113,3,620,550,P,0,NONE,0,1,470634,950
Control_TS_23_A,3,test,R,114,2,820,350,P,0,<rshift>,1,0,471634,356
Control_TS_23_A,3,test,R,115,4,820,550,R,1,<rshift>,1,1,472633,439
Control_TS_23_A,3,test,R,116,4,820,550,R,1,<rshift>,1,1,473634,470
Control_TS_23_A,3,test,R,117,1,620,350,P,0,NONE,0,1,474635,951
Control_TS_23_A,3,test,R,118,1,620,350,R,1,<rshift>,1,1,475633,556
Control_TS_23_A,3,test,R,119,3,620,550,R,1,<rshift>,1,1,476633,407
Control_TS_23_A,3,test,R,120,4,820,550,P,0,NONE,0,1,477633,950
Control_TS_23_A,3,test,R,121,3,620,550,R,1,<rshift>,1,1,478633,580
Control_TS_23_A,3,test,R,122,2,820,350,R,1,<rshift>,1,1,479633,403
Control_TS_23_A,3,test,R,123,4,820,550,P,0,NONE,0,1,480635,950
Control_TS_23_A,3,test,R,124,1,620,350,R,1,<rshift>,1,1,481633,341
Control_TS_23_A,3,test,R,125,3,620,550,R,1,<rshift>,1,1,482635,413
Control_TS_23_A,3,test,R,126,3,620,550,P,0,NONE,0,1,483635,950
Control_TS_23_A,3,test,R,127,1,620,350,R,1,<rshift>,1,1,484634,381
Control_TS_23_A,3,test,R,128,1,620,350,R,1,<rshift>,1,1,485633,393
Control_TS_23_A,3,test,R,129,4,820,550,R,1,<rshift>,1,1,486634,547
Control_TS_23_A,3,test,R,130,3,620,550,R,1,<rshift>,1,1,487633,406
Control_TS_23_A,3,test,R,131,1,620,350,R,1,<rshift>,1,1,488635,335
Control_TS_23_A,3,test,R,132,4,820,550,R,1,<rshift>,1,1,489635,344
Control_TS_23_A,3,test,R,133,2,820,350,R,1,<rshift>,1,1,490635,366
Control_TS_23_A,3,test,R,134,2,820,350,R,1,<rshift>,1,1,491635,375
Control_TS_23_A,3,test,R,135,2,820,350,R,1,<rshift>,1,1,492635,497
Control_TS_23_A,3,test,R,136,2,820,350,R,1,<rshift>,1,1,493635,393
Control_TS_23_A,3,test,R,137,3,620,550,R,1,<rshift>,1,1,494635,375
Control_TS_23_A,3,test,R,138,3,620,550,R,1,<rshift>,1,1,495634,442
Control_TS_23_A,3,test,R,139,2,820,350,P,0,<rshift>,1,0,496635,371
Control_TS_23_A,3,test,R,140,1,620,350,R,1,<rshift>,1,1,497635,349
Control_TS_23_A,3,test,R,141,2,820,350,P,0,NONE,0,1,498634,950
Control_TS_23_A,3,test,R,142,3,620,550,R,1,<rshift>,1,1,499634,366
Control_TS_23_A,3,test,R,143,2,820,350,R,1,<rshift>,1,1,500636,353
Control_TS_23_A,3,test,R,144,3,620,550,R,1,<rshift>,1,1,501636,368
Control_TS_23_A,3,test,R,145,4,820,550,R,1,<rshift>,1,1,502634,365
Control_TS_23_A,3,test,R,146,2,820,350,R,1,<rshift>,1,1,503634,386
Control_TS_23_A,3,test,R,147,1,620,350,R,1,<rshift>,1,1,504634,361
Control_TS_23_A,3,test,R,148,1,620,350,R,1,<rshift>,1,1,505634,635
Control_TS_23_A,3,test,R,149,2,820,350,P,0,<rshift>,1,0,506635,378
Control_TS_23_A,3,test,R,150,1,620,350,R,1,<rshift>,1,1,507635,323
Control_TS_23_A,3,test,R,151,2,820,350,P,0,<rshift>,1,0,508633,350
Control_TS_23_A,3,test,R,152,4,820,550,R,1,<rshift>,1,1,509633,530
Control_TS_23_A,3,test,R,153,3,620,550,R,1,<rshift>,1,1,510635,435
Control_TS_23_A,3,test,R,154,2,820,350,R,1,<rshift>,1,1,511634,381
Control_TS_23_A,3,test,R,155,4,820,550,R,1,<rshift>,1,1,512635,435
Control_TS_23_A,3,test,R,156,4,820,550,R,1,<rshift>,1,1,513635,458
Control_TS_23_A,3,test,R,157,1,620,350,P,0,NONE,0,1,514633,950
Control_TS_23_A,3,test,R,158,1,620,350,R,1,<rshift>,1,1,515634,431
Control_TS_23_A,3,test,R,159,4,820,550,R,1,<rshift>,1,1,516635,385
Control_TS_23_A,3,test,R,160,3,620,550,R,1,<rshift>,1,1,517633,691
Control_TS_23_A,3,test,R,161,2,820,350,P,0,<rshift>,1,0,518635,429
Control_TS_23_A,3,test,R,162,4,820,550,P,0,NONE,0,1,519633,951
Control_TS_23_A,3,test,R,163,1,620,350,R,1,<rshift>,1,1,520633,260
Control_TS_23_A,3,test,R,164,4,820,550,R,1,<rshift>,1,1,521635,397
Control_TS_23_A,3,test,R,165,1,620,350,R,1,<rshift>,1,1,522635,400
Control_TS_23_A,3,test,R,166,2,820,350,P,0,NONE,0,1,523635,951
Control_TS_23_A,3,test,R,167,3,620,550,R,1,<rshift>,1,1,524634,404
Control_TS_23_A,3,test,R,168,4,820,550,R,1,<rshift>,1,1,525634,353
Control_TS_23_A,3,test,R,169,4,820,550,P,0,NONE,0,1,526636,950
Control_TS_23_A,3,test,R,170,3,620,550,R,1,<rshift>,1,1,527634,350
Control_TS_23_A,3,test,R,171,1,620,350,R,1,<rshift>,1,1,528633,318
Control_TS_23_A,3,test,R,172,4,820,550,R,1,<rshift>,1,1,529636,373
Control_TS_23_A,3,test,R,173,3,620,550,R,1,<rshift>,1,1,530635,365
Control_TS_23_A,3,test,R,174,1,620,350,R,1,<rshift>,1,1,531635,515
Control_TS_23_A,3,test,R,175,4,820,550,R,1,<rshift>,1,1,532635,362
Control_TS_23_A,3,test,R,176,1,620,350,R,1,<rshift>,1,1,533633,317
Control_TS_23_A,3,test,R,177,2,820,350,R,1,<rshift>,1,1,534633,358
Control_TS_23_A,3,test,R,178,4,820,550,P,0,<rshift>,1,0,535634,322
Control_TS_23_A,3,test,R,179,2,820,350,P,0,<rshift>,1,0,536636,355
Control_TS_23_A,3,test,R,180,2,820,350,R,1,<rshift>,1,1,537634,536
Control_TS_23_A,3,test,R,181,3,620,550,R,1,<rshift>,1,1,538634,372
Control_TS_23_A,3,test,R,182,3,620,550,R,1,<rshift>,1,1,539636,407
Control_TS_23_A,3,test,R,183,3,620,550,R,1,<rshift>,1,1,540636,368
Control_TS_23_A,3,test,R,184,3,620,550,R,1,<rshift>,1,1,541635,366
Control_TS_23_A,3,test,R,185,4,820,550,R,1,<rshift>,1,1,542636,481
Control_TS_23_A,3,test,R,186,4,820,550,R,1,<rshift>,1,1,543636,429
Control_TS_23_A,3,test,R,187,1,620,350,R,1,<rshift>,1,1,544636,404
Control_TS_23_A,3,test,R,188,2,820,350,R,1,<rshift>,1,1,545633,469
Control_TS_23_A,3,test,R,189,3,620,550,R,1,<rshift>,1,1,546634,351
Control_TS_23_A,3,test,R,190,2,820,350,R,1,<rshift>,1,1,547633,351
Control_TS_23_A,3,test,R,191,2,820,350,R,1,<rshift>,1,1,548635,307
Control_TS_23_A,3,test,R,192,1,620,350,R,1,<rshift>,1,1,549634,528
Control_TS_23_A,3,test,R,193,2,820,350,P,0,<rshift>,1,0,550636,381
Control_TS_23_A,3,test,R,194,3,620,550,R,1,<rshift>,1,1,551633,503
Control_TS_23_A,3,test,R,195,1,620,350,R,1,<rshift>,1,1,552636,352
Control_TS_23_A,3,test,R,196,2,820,350,R,1,<rshift>,1,1,553635,299
Control_TS_23_A,3,test,R,197,3,620,550,R,1,<rshift>,1,1,554636,382
Control_TS_23_A,3,test,R,198,1,620,350,R,1,<rshift>,1,1,555633,365
Control_TS_23_A,3,test,R,199,4,820,550,R,1,<rshift>,1,1,556633,362
Control_TS_23_A,3,test,R,200,4,820,550,R,1,<rshift>,1,1,557633,336
Control_TS_23_A,3,test,R,201,1,620,350,R,1,<rshift>,1,1,558635,308
Control_TS_23_A,3,test,R,202,1,620,350,R,1,<rshift>,1,1,559635,452
Control_TS_23_A,3,test,R,203,3,620,550,P,0,<rshift>,1,0,560634,573
Control_TS_23_A,3,test,R,204,3,620,550,R,1,<rshift>,1,1,561633,598
Control_TS_23_A,3,test,R,205,1,620,350,R,1,<rshift>,1,1,562634,393
Control_TS_23_A,3,test,R,206,4,820,550,P,0,NONE,0,1,563635,950
Control_TS_23_A,3,test,R,207,1,620,350,R,1,<rshift>,1,1,564635,425
Control_TS_23_A,3,test,R,208,1,620,350,R,1,<rshift>,1,1,565634,389
Control_TS_23_A,3,test,R,209,3,620,550,R,1,<rshift>,1,1,566633,498
Control_TS_23_A,3,test,R,210,3,620,550,R,1,<rshift>,1,1,567633,420
Control_TS_23_A,3,test,R,211,3,620,550,R,1,<rshift>,1,1,568633,372
Control_TS_23_A,3,test,R,212,2,820,350,R,1,<rshift>,1,1,569634,461
Control_TS_23_A,3,test,R,213,3,620,550,R,1,<rshift>,1,1,570635,349
Control_TS_23_A,3,test,R,214,4,820,550,R,1,<rshift>,1,1,571634,334
Control_TS_23_A,3,test,R,215,3,620,550,R,1,<rshift>,1,1,572634,413
Control_TS_23_A,3,test,R,216,3,620,550,R,1,<rshift>,1,1,573635,418
Control_TS_23_A,3,test,R,217,4,820,550,R,1,<rshift>,1,1,574635,495
Control_TS_23_A,3,test,R,218,2,820,350,R,1,<rshift>,1,1,575633,312
Control_TS_23_A,3,test,R,219,3,620,550,R,1,<rshift>,1,1,576636,361
Control_TS_23_A,3,test,R,220,4,820,550,R,1,<rshift>,1,1,577634,296
Control_TS_23_A,3,test,R,221,3,620,550,R,1,<rshift>,1,1,578633,294
Control_TS_23_A,3,test,R,222,4,820,550,P,0,<rshift>,1,0,579634,303
Control_TS_23_A,3,test,R,223,2,820,350,R,1,<rshift>,1,1,580634,312
Control_TS_23_A,3,test,R,224,3,620,550,R,1,<rshift>,1,1,581634,329
Control_TS_23_A,3,test,R,225,3,620,550,R,1,<rshift>,1,1,582635,437
Control_TS_23_A,3,test,R,226,1,620,350,R,1,<rshift>,1,1,583634,390
Control_TS_23_A,3,test,R,227,4,820,550,R,1,<rshift>,1,1,584634,338
Control_TS_23_A,3,test,R,228,3,620,550,R,1,<rshift>,1,1,585635,396
Control_TS_23_A,3,test,R,229,3,620,550,R,1,<rshift>,1,1,586634,366
Control_TS_23_A,3,test,R,230,2,820,350,R,1,<rshift>,1,1,587636,377
Control_TS_23_A,3,test,R,231,2,820,350,R,1,<rshift>,1,1,588633,327
Control_TS_23_A,3,test,R,232,3,620,550,R,1,<rshift>,1,1,589635,365
Control_TS_23_A,3,test,R,233,2,820,350,R,1,<rshift>,1,1,590635,375
Control_TS_23_A,3,test,R,234,4,820,550,R,1,<rshift>,1,1,591634,436
Control_TS_23_A,3,test,R,235,3,620,550,P,0,NONE,0,1,592635,951
Control_TS_23_A,3,test,R,236,3,620,550,R,1,<rshift>,1,1,593633,433
Control_TS_23_A,3,test,R,237,4,820,550,R,1,<rshift>,1,1,594634,319
Control_TS_23_A,3,test,R,238,2,820,350,R,1,<rshift>,1,1,595636,346
Control_TS_23_A,3,test,R,239,1,620,350,R,1,<rshift>,1,1,596635,358
Control_TS_23_A,3,test,R,240,2,820,350,R,1,<rshift>,1,1,597633,343
Control_TS_23_A,3,test,R,241,2,820,350,P,0,<rshift>,1,0,598635,593
Control_TS_23_A,3,test,R,242,3,620,550,R,1,<rshift>,1,1,599635,393
Control_TS_23_A,3,test,R,243,3,620,550,R,1,<rshift>,1,1,600633,523
Control_TS_23_A,3,test,R,244,1,620,350,R,1,<rshift>,1,1,601634,461
Control_TS_23_A,3,test,R,245,4,820,550,R,1,<rshift>,1,1,602633,301
Control_TS_23_A,3,test,R,246,3,620,550,R,1,<rshift>,1,1,603635,404
Control_TS_23_A,3,test,R,247,2,820,350,R,1,<rshift>,1,1,604635,321
Control_TS_23_A,3,test,R,248,3,620,550,R,1,<rshift>,1,1,605633,463
Control_TS_23_A,3,test,R,249,2,820,350,P,0,NONE,0,1,606635,950
Control_TS_23_A,3,test,R,250,2,820,350,P,0,NONE,0,1,607633,950
Control_TS_23_A,3,test,R,251,2,820,350,R,1,<rshift>,1,1,608633,538
Control_TS_23_A,3,test,R,252,4,820,550,R,1,<rshift>,1,1,609633,534
Control_TS_23_A,3,test,R,253,1,620,350,R,1,<rshift>,1,1,610633,312
Control_TS_23_A,3,test,R,254,4,820,550,R,1,<rshift>,1,1,611635,456
Control_TS_23_A,3,test,R,255,3,620,550,R,1,<rshift>,1,1,612636,336
Control_TS_23_A,3,test,R,256,3,620,550,R,1,<rshift>,1,1,613635,335
Control_TS_23_A,3,test,R,257,2,820,350,R,1,<rshift>,1,1,614634,320
Control_TS_23_A,3,test,R,258,4,820,550,R,1,<rshift>,1,1,615634,364
Control_TS_23_A,3,test,R,259,2,820,350,R,1,<rshift>,1,1,616635,365
Control_TS_23_A,3,test,R,260,1,620,350,R,1,<rshift>,1,1,617636,126
Control_TS_23_A,3,test,R,261,4,820,550,R,1,<rshift>,1,1,618635,287
Control_TS_23_A,3,test,R,262,1,620,350,R,1,<rshift>,1,1,619633,309
Control_TS_23_A,3,test,R,263,1,620,350,R,1,<rshift>,1,1,620633,344
Control_TS_23_A,3,test,R,264,4,820,550,P,0,<rshift>,1,0,621633,265
Control_TS_23_A,3,test,R,265,4,820,550,R,1,<rshift>,1,1,622633,497
Control_TS_23_A,3,test,R,266,2,820,350,R,1,<rshift>,1,1,623633,349
Control_TS_23_A,3,test,R,267,4,820,550,R,1,<rshift>,1,1,624635,156
Control_TS_23_A,3,test,R,268,3,620,550,R,1,<rshift>,1,1,625633,311
Control_TS_23_A,3,test,R,269,4,820,550,R,1,<rshift>,1,1,626635,367
Control_TS_23_A,3,test,R,270,4,820,550,R,1,<rshift>,1,1,627633,357
Control_TS_23_A,3,test,R,271,1,620,350,P,0,<rshift>,1,0,628635,287
Control_TS_23_A,3,test,R,272,3,620,550,P,0,<rshift>,1,0,629635,137
Control_TS_23_A,3,test,R,273,4,820,550,R,1,<rshift>,1,1,630634,426
Control_TS_23_A,3,test,R,274,3,620,550,R,1,<rshift>,1,1,631635,371
Control_TS_23_A,3,test,R,275,1,620,350,R,1,<rshift>,1,1,632635,480
Control_TS_23_A,3,test,R,276,4,820,550,R,1,<rshift>,1,1,633634,313
Control_TS_23_A,3,test,R,277,4,820,550,R,1,<rshift>,1,1,634635,332
Control_TS_23_A,3,test,R,278,4,820,550,P,0,<rshift>,1,0,635634,430
Control_TS_23_A,3,test,R,279,3,620,550,P,0,<rshift>,1,0,636635,297
Control_TS_23_A,3,test,R,280,4,820,550,R,1,<rshift>,1,1,637633,303
Control_TS_23_A,3,test,R,281,4,820,550,R,1,<rshift>,1,1,638633,556
Control_TS_23_A,3,test,R,282,1,620,350,R,1,<rshift>,1,1,639633,355
Control_TS_23_A,3,test,R,283,4,820,550,R,1,<rshift>,1,1,640634,366
Control_TS_23_A,3,test,R,284,4,820,550,P,0,<rshift>,1,0,641633,380
Control_TS_23_A,3,test,R,285,4,820,550,R,1,<rshift>,1,1,642634,296
Control_TS_23_A,3,test,R,286,3,620,550,P,0,NONE,0,1,643633,951
Control_TS_23_A,3,test,R,287,1,620,350,R,1,<rshift>,1,1,644635,382
Control_TS_23_A,3,test,R,288,4,820,550,R,1,<rshift>,1,1,645633,490
Control_TS_23_A,3,test,R,289,4,820,550,R,1,<rshift>,1,1,646633,343
Control_TS_23_A,3,test,R,290,3,620,550,P,0,NONE,0,1,647634,950
Control_TS_23_A,3,test,R,291,4,820,550,R,1,<rshift>,1,1,648635,40
Control_TS_23_A,3,test,R,292,2,820,350,R,1,<rshift>,1,1,649635,506
Control_TS_23_A,3,test,R,293,4,820,550,R,1,<rshift>,1,1,650635,360
Control_TS_23_A,3,test,R,294,3,620,550,R,1,<rshift>,1,1,651633,370
Control_TS_23_A,3,test,R,295,4,820,550,R,1,<rshift>,1,1,652634,347
Control_TS_23_A,3,test,R,296,1,620,350,R,1,<rshift>,1,1,653635,461
Control_TS_23_A,3,test,R,297,4,820,550,R,1,<rshift>,1,1,654634,323
Control_TS_23_A,3,test,R,298,1,620,350,R,1,<rshift>,1,1,655634,327
Control_TS_23_A,3,test,R,299,1,620,350,R,1,<rshift>,1,1,656635,381
Control_TS_23_A,3,test,R,300,2,820,350,R,1,<rshift>,1,1,657635,329
