subnum,block,type,correctresponse,trial,choice,x,y,stim,present,response,responded,corr,starttime,rt
CONTROL_TS_6_A,0,practice,P,1,2,856,391,P,1,<rshift>,1,1,17307,476
CONTROL_TS_6_A,0,practice,P,2,3,656,591,R,0,NONE,0,1,18304,950
CONTROL_TS_6_A,0,practice,P,3,1,656,391,P,1,<rshift>,1,1,19303,538
CONTROL_TS_6_A,0,practice,P,4,4,856,591,P,1,<rshift>,1,1,20303,364
CONTROL_TS_6_A,0,practice,P,5,3,656,591,P,1,<rshift>,1,1,21303,367
CONTROL_TS_6_A,0,practice,P,6,3,656,591,R,0,<rshift>,1,0,22303,378
CONTROL_TS_6_A,0,practice,P,7,4,856,591,P,1,<rshift>,1,1,23761,468
CONTROL_TS_6_A,0,practice,P,8,4,856,591,P,1,NONE,0,0,24301,950
CONTROL_TS_6_A,0,practice,P,9,1,656,391,P,1,<rshift>,1,1,26312,367
CONTROL_TS_6_A,0,practice,P,10,4,856,591,P,1,<rshift>,1,1,26719,772
CONTROL_TS_6_A,1,test,P,1,1,656,391,P,1,<rshift>,1,1,33394,623
CONTROL_TS_6_A,1,test,P,2,2,856,391,P,1,<rshift>,1,1,34394,316
CONTROL_TS_6_A,1,test,P,3,4,856,591,P,1,<rshift>,1,1,35394,288
CONTROL_TS_6_A,1,test,P,4,1,656,391,P,1,<rshift>,1,1,36394,359
CONTROL_TS_6_A,1,test,P,5,2,856,391,P,1,<rshift>,1,1,37394,266
CONTROL_TS_6_A,1,test,P,6,2,856,391,P,1,<rshift>,1,1,38394,297
CONTROL_TS_6_A,1,test,P,7,1,656,391,R,0,<rshift>,1,0,39394,347
CONTROL_TS_6_A,1,test,P,8,1,656,391,P,1,<rshift>,1,1,40394,629
CONTROL_TS_6_A,1,test,P,9,2,856,391,P,1,<rshift>,1,1,41394,311
CONTROL_TS_6_A,1,test,P,10,1,656,391,P,1,<rshift>,1,1,42394,398
CONTROL_TS_6_A,1,test,P,11,2,856,391,R,0,NONE,0,1,43394,950
CONTROL_TS_6_A,1,test,P,12,4,856,591,P,1,<rshift>,1,1,44393,310
CONTROL_TS_6_A,1,test,P,13,1,656,391,P,1,<rshift>,1,1,45394,301
CONTROL_TS_6_A,1,test,P,14,2,856,391,R,0,NONE,0,1,46393,950
CONTROL_TS_6_A,1,test,P,15,3,656,591,P,1,<rshift>,1,1,47393,312
CONTROL_TS_6_A,1,test,P,16,4,856,591,P,1,<rshift>,1,1,48394,362
CONTROL_TS_6_A,1,test,P,17,3,656,591,P,1,<rshift>,1,1,49395,422
CONTROL_TS_6_A,1,test,P,18,3,656,591,P,1,<rshift>,1,1,50394,362
CONTROL_TS_6_A,1,test,P,19,2,856,391,R,0,NONE,0,1,51394,950
CONTROL_TS_6_A,1,test,P,20,4,856,591,P,1,<rshift>,1,1,52393,390
CONTROL_TS_6_A,1,test,P,21,2,856,391,P,1,<rshift>,1,1,53393,421
CONTROL_TS_6_A,1,test,P,22,4,856,591,P,1,<rshift>,1,1,54394,376
CONTROL_TS_6_A,1,test,P,23,4,856,591,R,0,NONE,0,1,55394,950
CONTROL_TS_6_A,1,test,P,24,2,856,391,P,1,<rshift>,1,1,56393,387
CONTROL_TS_6_A,1,test,P,25,4,856,591,P,1,<rshift>,1,1,57394,416
CONTROL_TS_6_A,1,test,P,26,3,656,591,P,1,<rshift>,1,1,58394,399
CONTROL_TS_6_A,1,test,P,27,1,656,391,P,1,<rshift>,1,1,59394,314
CONTROL_TS_6_A,1,test,P,28,1,656,391,P,1,<rshift>,1,1,60394,372
CONTROL_TS_6_A,1,test,P,29,4,856,591,P,1,<rshift>,1,1,61394,356
CONTROL_TS_6_A,1,test,P,30,1,656,391,P,1,<rshift>,1,1,62394,273
CONTROL_TS_6_A,1,test,P,31,3,656,591,P,1,<rshift>,1,1,63394,307
CONTROL_TS_6_A,1,test,P,32,1,656,391,P,1,<rshift>,1,1,64394,377
CONTROL_TS_6_A,1,test,P,33,2,856,391,P,1,<rshift>,1,1,65394,309
CONTROL_TS_6_A,1,test,P,34,4,856,591,P,1,<rshift>,1,1,66394,459
CONTROL_TS_6_A,1,test,P,35,4,856,591,P,1,<rshift>,1,1,67394,520
CONTROL_TS_6_A,1,test,P,36,4,856,591,P,1,<rshift>,1,1,68394,400
CONTROL_TS_6_A,1,test,P,37,1,656,391,P,1,<rshift>,1,1,69395,328
CONTROL_TS_6_A,1,test,P,38,4,856,591,R,0,<rshift>,1,0,70394,333
CONTROL_TS_6_A,1,test,P,39,4,856,591,P,1,<rshift>,1,1,71394,521
CONTROL_TS_6_A,1,test,P,40,3,656,591,P,1,<rshift>,1,1,72394,308
CONTROL_TS_6_A,1,test,P,41,4,856,591,P,1,<rshift>,1,1,73394,382
CONTROL_TS_6_A,1,test,P,42,4,856,591,P,1,<rshift>,1,1,74394,370
CONTROL_TS_6_A,1,test,P,43,1,656,391,P,1,<rshift>,1,1,75394,271
CONTROL_TS_6_A,1,test,P,44,2,856,391,P,1,<rshift>,1,1,76394,252
CONTROL_TS_6_A,1,test,P,45,4,856,591,R,0,<rshift>,1,0,77394,283
CONTROL_TS_6_A,1,test,P,46,4,856,591,P,1,<rshift>,1,1,78394,521
CONTROL_TS_6_A,1,test,P,47,4,856,591,R,0,<rshift>,1,0,79394,399
CONTROL_TS_6_A,1,test,P,48,3,656,591,P,1,<rshift>,1,1,80394,400
CONTROL_TS_6_A,1,test,P,49,4,856,591,P,1,<rshift>,1,1,81394,386
CONTROL_TS_6_A,1,test,P,50,3,656,591,P,1,<rshift>,1,1,82394,398
CONTROL_TS_6_A,1,test,P,51,1,656,391,P,1,<rshift>,1,1,83393,408
CONTROL_TS_6_A,1,test,P,52,2,856,391,P,1,<rshift>,1,1,84394,322
CONTROL_TS_6_A,1,test,P,53,3,656,591,P,1,<rshift>,1,1,85394,280
CONTROL_TS_6_A,1,test,P,54,3,656,591,R,0,NONE,0,1,86394,950
CONTROL_TS_6_A,1,test,P,55,1,656,391,P,1,<rshift>,1,1,87394,316
CONTROL_TS_6_A,1,test,P,56,1,656,391,P,1,<rshift>,1,1,88394,627
CONTROL_TS_6_A,1,test,P,57,4,856,591,R,0,<rshift>,1,0,89394,330
CONTROL_TS_6_A,1,test,P,58,1,656,391,P,1,<rshift>,1,1,90394,299
CONTROL_TS_6_A,1,test,P,59,1,656,391,R,0,<rshift>,1,0,91394,320
CONTROL_TS_6_A,1,test,P,60,2,856,391,R,0,<rshift>,1,0,92394,351
CONTROL_TS_6_A,1,test,P,61,3,656,591,P,1,<rshift>,1,1,93394,413
CONTROL_TS_6_A,1,test,P,62,3,656,591,P,1,<rshift>,1,1,94394,372
CONTROL_TS_6_A,1,test,P,63,1,656,391,P,1,<rshift>,1,1,95394,358
CONTROL_TS_6_A,1,test,P,64,2,856,391,P,1,<rshift>,1,1,96395,377
CONTROL_TS_6_A,1,test,P,65,1,656,391,P,1,<rshift>,1,1,97394,386
CONTROL_TS_6_A,1,test,P,66,3,656,591,P,1,NONE,0,0,98394,950
CONTROL_TS_6_A,1,test,P,67,2,856,391,R,0,NONE,0,1,99394,950
CONTROL_TS_6_A,1,test,P,68,3,656,591,P,1,<rshift>,1,1,100393,264
CONTROL_TS_6_A,1,test,P,69,4,856,591,R,0,NONE,0,1,101394,950
CONTROL_TS_6_A,1,test,P,70,1,656,391,R,0,<rshift>,1,0,102393,262
CONTROL_TS_6_A,1,test,P,71,4,856,591,P,1,<rshift>,1,1,103394,322
CONTROL_TS_6_A,1,test,P,72,3,656,591,R,0,<rshift>,1,0,104394,342
CONTROL_TS_6_A,1,test,P,73,2,856,391,P,1,<rshift>,1,1,105394,271
CONTROL_TS_6_A,1,test,P,74,4,856,591,P,1,<rshift>,1,1,106394,381
CONTROL_TS_6_A,1,test,P,75,4,856,591,P,1,<rshift>,1,1,107394,412
CONTROL_TS_6_A,1,test,P,76,2,856,391,P,1,<rshift>,1,1,108394,330
CONTROL_TS_6_A,1,test,P,77,2,856,391,P,1,<rshift>,1,1,109394,520
CONTROL_TS_6_A,1,test,P,78,4,856,591,P,1,<rshift>,1,1,110394,395
CONTROL_TS_6_A,1,test,P,79,3,656,591,P,1,<rshift>,1,1,111394,327
CONTROL_TS_6_A,1,test,P,80,3,656,591,P,1,<rshift>,1,1,112394,416
CONTROL_TS_6_A,1,test,P,81,3,656,591,P,1,NONE,0,0,113393,951
CONTROL_TS_6_A,1,test,P,82,3,656,591,P,1,<rshift>,1,1,114394,524
CONTROL_TS_6_A,1,test,P,83,4,856,591,P,1,<rshift>,1,1,115394,374
CONTROL_TS_6_A,1,test,P,84,3,656,591,P,1,<rshift>,1,1,116394,322
CONTROL_TS_6_A,1,test,P,85,2,856,391,R,0,<rshift>,1,0,117394,294
CONTROL_TS_6_A,1,test,P,86,1,656,391,R,0,NONE,0,1,118394,950
CONTROL_TS_6_A,1,test,P,87,2,856,391,P,1,<rshift>,1,1,119393,360
CONTROL_TS_6_A,1,test,P,88,3,656,591,P,1,<rshift>,1,1,120394,424
CONTROL_TS_6_A,1,test,P,89,2,856,391,P,1,<rshift>,1,1,121394,346
CONTROL_TS_6_A,1,test,P,90,4,856,591,R,0,<rshift>,1,0,122394,302
CONTROL_TS_6_A,1,test,P,91,2,856,391,P,1,<rshift>,1,1,123393,305
CONTROL_TS_6_A,1,test,P,92,3,656,591,P,1,<rshift>,1,1,124394,298
CONTROL_TS_6_A,1,test,P,93,3,656,591,P,1,<rshift>,1,1,125394,420
CONTROL_TS_6_A,1,test,P,94,4,856,591,P,1,<rshift>,1,1,126394,368
CONTROL_TS_6_A,1,test,P,95,3,656,591,P,1,<rshift>,1,1,127394,395
CONTROL_TS_6_A,1,test,P,96,2,856,391,P,1,<rshift>,1,1,128394,278
CONTROL_TS_6_A,1,test,P,97,1,656,391,P,1,<rshift>,1,1,129393,255
CONTROL_TS_6_A,1,test,P,98,2,856,391,P,1,<rshift>,1,1,130394,326
CONTROL_TS_6_A,1,test,P,99,2,856,391,P,1,<rshift>,1,1,131394,335
CONTROL_TS_6_A,1,test,P,100,3,656,591,P,1,<rshift>,1,1,132394,370
CONTROL_TS_6_A,1,test,P,101,1,656,391,R,0,<rshift>,1,0,133394,320
CONTROL_TS_6_A,1,test,P,102,3,656,591,P,1,NONE,0,0,134394,950
CONTROL_TS_6_A,1,test,P,103,3,656,591,P,1,<rshift>,1,1,135393,358
CONTROL_TS_6_A,1,test,P,104,1,656,391,R,0,<rshift>,1,0,136394,396
CONTROL_TS_6_A,1,test,P,105,1,656,391,P,1,<rshift>,1,1,137395,478
CONTROL_TS_6_A,1,test,P,106,3,656,591,R,0,NONE,0,1,138395,950
CONTROL_TS_6_A,1,test,P,107,2,856,391,P,1,<rshift>,1,1,139395,439
CONTROL_TS_6_A,1,test,P,108,3,656,591,R,0,NONE,0,1,140394,950
CONTROL_TS_6_A,1,test,P,109,4,856,591,P,1,<rshift>,1,1,141394,326
CONTROL_TS_6_A,1,test,P,110,4,856,591,P,1,<rshift>,1,1,142394,423
CONTROL_TS_6_A,1,test,P,111,2,856,391,P,1,<rshift>,1,1,143394,377
CONTROL_TS_6_A,1,test,P,112,1,656,391,R,0,<rshift>,1,0,144394,369
CONTROL_TS_6_A,1,test,P,113,1,656,391,P,1,<rshift>,1,1,145394,708
CONTROL_TS_6_A,1,test,P,114,3,656,591,P,1,<rshift>,1,1,146394,348
CONTROL_TS_6_A,1,test,P,115,3,656,591,P,1,<rshift>,1,1,147394,286
CONTROL_TS_6_A,1,test,P,116,2,856,391,R,0,<rshift>,1,0,148394,306
CONTROL_TS_6_A,1,test,P,117,4,856,591,P,1,<rshift>,1,1,149394,324
CONTROL_TS_6_A,1,test,P,118,4,856,591,P,1,<rshift>,1,1,150394,399
CONTROL_TS_6_A,1,test,P,119,2,856,391,P,1,<rshift>,1,1,151394,371
CONTROL_TS_6_A,1,test,P,120,4,856,591,R,0,<rshift>,1,0,152394,313
CONTROL_TS_6_A,1,test,P,121,2,856,391,P,1,<rshift>,1,1,153394,304
CONTROL_TS_6_A,1,test,P,122,2,856,391,P,1,<rshift>,1,1,154394,358
CONTROL_TS_6_A,1,test,P,123,3,656,591,P,1,<rshift>,1,1,155394,455
CONTROL_TS_6_A,1,test,P,124,3,656,591,P,1,NONE,0,0,156394,950
CONTROL_TS_6_A,1,test,P,125,3,656,591,P,1,<rshift>,1,1,157394,354
CONTROL_TS_6_A,1,test,P,126,2,856,391,P,1,<rshift>,1,1,158394,541
CONTROL_TS_6_A,1,test,P,127,1,656,391,P,1,<rshift>,1,1,159394,414
CONTROL_TS_6_A,1,test,P,128,4,856,591,P,1,<rshift>,1,1,160394,497
CONTROL_TS_6_A,1,test,P,129,4,856,591,P,1,<rshift>,1,1,161394,692
CONTROL_TS_6_A,1,test,P,130,4,856,591,R,0,<rshift>,1,0,162394,374
CONTROL_TS_6_A,1,test,P,131,1,656,391,P,1,<rshift>,1,1,163394,340
CONTROL_TS_6_A,1,test,P,132,1,656,391,R,0,<rshift>,1,0,164394,379
CONTROL_TS_6_A,1,test,P,133,1,656,391,P,1,<rshift>,1,1,165394,520
CONTROL_TS_6_A,1,test,P,134,3,656,591,P,1,<rshift>,1,1,166394,444
CONTROL_TS_6_A,1,test,P,135,2,856,391,P,1,<rshift>,1,1,167394,290
CONTROL_TS_6_A,1,test,P,136,2,856,391,P,1,<rshift>,1,1,168394,426
CONTROL_TS_6_A,1,test,P,137,1,656,391,P,1,<rshift>,1,1,169394,302
CONTROL_TS_6_A,1,test,P,138,3,656,591,P,1,<rshift>,1,1,170394,307
CONTROL_TS_6_A,1,test,P,139,4,856,591,P,1,<rshift>,1,1,171395,378
CONTROL_TS_6_A,1,test,P,140,3,656,591,P,1,<rshift>,1,1,172394,383
CONTROL_TS_6_A,1,test,P,141,2,856,391,R,0,<rshift>,1,0,173394,399
CONTROL_TS_6_A,1,test,P,142,1,656,391,P,1,<rshift>,1,1,174394,268
CONTROL_TS_6_A,1,test,P,143,2,856,391,P,1,<rshift>,1,1,175394,301
CONTROL_TS_6_A,1,test,P,144,1,656,391,P,1,<rshift>,1,1,176394,319
CONTROL_TS_6_A,1,test,P,145,4,856,591,P,1,<rshift>,1,1,177394,315
CONTROL_TS_6_A,1,test,P,146,4,856,591,P,1,<rshift>,1,1,178393,429
CONTROL_TS_6_A,1,test,P,147,1,656,391,P,1,<rshift>,1,1,179394,554
CONTROL_TS_6_A,1,test,P,148,3,656,591,R,0,NONE,0,1,180394,950
CONTROL_TS_6_A,1,test,P,149,3,656,591,P,1,<rshift>,1,1,181393,339
CONTROL_TS_6_A,1,test,P,150,1,656,391,P,1,<rshift>,1,1,182394,376
CONTROL_TS_6_A,1,test,P,151,3,656,591,P,1,<rshift>,1,1,183394,344
CONTROL_TS_6_A,1,test,P,152,1,656,391,R,0,NONE,0,1,184394,950
CONTROL_TS_6_A,1,test,P,153,3,656,591,P,1,<rshift>,1,1,185393,359
CONTROL_TS_6_A,1,test,P,154,3,656,591,P,1,<rshift>,1,1,186394,338
CONTROL_TS_6_A,1,test,P,155,3,656,591,P,1,<rshift>,1,1,187394,364
CONTROL_TS_6_A,1,test,P,156,4,856,591,P,1,<rshift>,1,1,188394,361
CONTROL_TS_6_A,1,test,P,157,3,656,591,P,1,<rshift>,1,1,189394,283
CONTROL_TS_6_A,1,test,P,158,4,856,591,P,1,<rshift>,1,1,190394,441
CONTROL_TS_6_A,1,test,P,159,3,656,591,P,1,<rshift>,1,1,191394,309
CONTROL_TS_6_A,1,test,P,160,4,856,591,R,0,<rshift>,1,0,192394,243
CONTROL_TS_6_A,1,test,P,161,1,656,391,R,0,<rshift>,1,0,193394,256
CONTROL_TS_6_A,1,test,P,162,4,856,591,P,1,<rshift>,1,1,194394,539
CONTROL_TS_6_A,1,test,P,163,1,656,391,R,0,NONE,0,1,195394,950
CONTROL_TS_6_A,1,test,P,164,2,856,391,P,1,<rshift>,1,1,196394,372
CONTROL_TS_6_A,1,test,P,165,4,856,591,P,1,<rshift>,1,1,197394,395
CONTROL_TS_6_A,1,test,P,166,4,856,591,P,1,<rshift>,1,1,198394,554
CONTROL_TS_6_A,1,test,P,167,3,656,591,P,1,<rshift>,1,1,199394,306
CONTROL_TS_6_A,1,test,P,168,1,656,391,R,0,<rshift>,1,0,200394,298
CONTROL_TS_6_A,1,test,P,169,3,656,591,P,1,<rshift>,1,1,201394,283
CONTROL_TS_6_A,1,test,P,170,3,656,591,P,1,NONE,0,0,202394,950
CONTROL_TS_6_A,1,test,P,171,1,656,391,R,0,NONE,0,1,203394,950
CONTROL_TS_6_A,1,test,P,172,3,656,591,P,1,<rshift>,1,1,204394,336
CONTROL_TS_6_A,1,test,P,173,1,656,391,P,1,<rshift>,1,1,205394,451
CONTROL_TS_6_A,1,test,P,174,1,656,391,P,1,<rshift>,1,1,206394,634
CONTROL_TS_6_A,1,test,P,175,2,856,391,P,1,<rshift>,1,1,207395,320
CONTROL_TS_6_A,1,test,P,176,1,656,391,P,1,<rshift>,1,1,208394,597
CONTROL_TS_6_A,1,test,P,177,1,656,391,P,1,<rshift>,1,1,209395,425
CONTROL_TS_6_A,1,test,P,178,2,856,391,P,1,<rshift>,1,1,210394,322
CONTROL_TS_6_A,1,test,P,179,4,856,591,P,1,<rshift>,1,1,211394,329
CONTROL_TS_6_A,1,test,P,180,3,656,591,P,1,<rshift>,1,1,212394,343
CONTROL_TS_6_A,1,test,P,181,1,656,391,P,1,<rshift>,1,1,213394,282
CONTROL_TS_6_A,1,test,P,182,3,656,591,P,1,<rshift>,1,1,214394,409
CONTROL_TS_6_A,1,test,P,183,1,656,391,P,1,<rshift>,1,1,215394,369
CONTROL_TS_6_A,1,test,P,184,2,856,391,P,1,<rshift>,1,1,216394,287
CONTROL_TS_6_A,1,test,P,185,1,656,391,P,1,<rshift>,1,1,217394,280
CONTROL_TS_6_A,1,test,P,186,1,656,391,P,1,<rshift>,1,1,218394,392
CONTROL_TS_6_A,1,test,P,187,2,856,391,R,0,<rshift>,1,0,219394,330
CONTROL_TS_6_A,1,test,P,188,2,856,391,P,1,<rshift>,1,1,220394,242
CONTROL_TS_6_A,1,test,P,189,4,856,591,P,1,<rshift>,1,1,221394,337
CONTROL_TS_6_A,1,test,P,190,1,656,391,P,1,<rshift>,1,1,222394,286
CONTROL_TS_6_A,1,test,P,191,1,656,391,P,1,<rshift>,1,1,223394,332
CONTROL_TS_6_A,1,test,P,192,3,656,591,R,0,<rshift>,1,0,224395,321
CONTROL_TS_6_A,1,test,P,193,3,656,591,P,1,NONE,0,0,225394,950
CONTROL_TS_6_A,1,test,P,194,4,856,591,R,0,<rshift>,1,0,226394,301
CONTROL_TS_6_A,1,test,P,195,1,656,391,P,1,<rshift>,1,1,227394,373
CONTROL_TS_6_A,1,test,P,196,4,856,591,R,0,NONE,0,1,228394,950
CONTROL_TS_6_A,1,test,P,197,1,656,391,P,1,<rshift>,1,1,229393,351
CONTROL_TS_6_A,1,test,P,198,3,656,591,R,0,<rshift>,1,0,230394,378
CONTROL_TS_6_A,1,test,P,199,1,656,391,P,1,<rshift>,1,1,231394,335
CONTROL_TS_6_A,1,test,P,200,3,656,591,R,0,NONE,0,1,232394,950
CONTROL_TS_6_A,1,test,P,201,3,656,591,P,1,<rshift>,1,1,233394,397
CONTROL_TS_6_A,1,test,P,202,2,856,391,R,0,NONE,0,1,234394,950
CONTROL_TS_6_A,1,test,P,203,2,856,391,P,1,<rshift>,1,1,235393,410
CONTROL_TS_6_A,1,test,P,204,3,656,591,P,1,<rshift>,1,1,236394,440
CONTROL_TS_6_A,1,test,P,205,1,656,391,P,1,<rshift>,1,1,237394,389
CONTROL_TS_6_A,1,test,P,206,4,856,591,P,1,<rshift>,1,1,238394,354
CONTROL_TS_6_A,1,test,P,207,1,656,391,P,1,<rshift>,1,1,239394,484
CONTROL_TS_6_A,1,test,P,208,1,656,391,P,1,<rshift>,1,1,240394,407
CONTROL_TS_6_A,1,test,P,209,4,856,591,P,1,<rshift>,1,1,241394,171
CONTROL_TS_6_A,1,test,P,210,3,656,591,P,1,<rshift>,1,1,242394,521
CONTROL_TS_6_A,1,test,P,211,4,856,591,R,0,<rshift>,1,0,243394,336
CONTROL_TS_6_A,1,test,P,212,2,856,391,P,1,<rshift>,1,1,244394,357
CONTROL_TS_6_A,1,test,P,213,2,856,391,R,0,NONE,0,1,245394,950
CONTROL_TS_6_A,1,test,P,214,2,856,391,P,1,<rshift>,1,1,246393,377
CONTROL_TS_6_A,1,test,P,215,4,856,591,R,0,<rshift>,1,0,247394,347
CONTROL_TS_6_A,1,test,P,216,2,856,391,P,1,<rshift>,1,1,248394,332
CONTROL_TS_6_A,1,test,P,217,1,656,391,P,1,<rshift>,1,1,249394,312
CONTROL_TS_6_A,1,test,P,218,1,656,391,P,1,<rshift>,1,1,250394,273
CONTROL_TS_6_A,1,test,P,219,4,856,591,R,0,NONE,0,1,251394,950
CONTROL_TS_6_A,1,test,P,220,3,656,591,P,1,<rshift>,1,1,252393,310
CONTROL_TS_6_A,1,test,P,221,3,656,591,P,1,<rshift>,1,1,253395,416
CONTROL_TS_6_A,1,test,P,222,4,856,591,P,1,<rshift>,1,1,254394,396
CONTROL_TS_6_A,1,test,P,223,3,656,591,P,1,<rshift>,1,1,255394,374
CONTROL_TS_6_A,1,test,P,224,4,856,591,P,1,<rshift>,1,1,256394,373
CONTROL_TS_6_A,1,test,P,225,1,656,391,P,1,<rshift>,1,1,257394,372
CONTROL_TS_6_A,1,test,P,226,3,656,591,P,1,<rshift>,1,1,258394,290
CONTROL_TS_6_A,1,test,P,227,3,656,591,P,1,<rshift>,1,1,259394,401
CONTROL_TS_6_A,1,test,P,228,1,656,391,P,1,<rshift>,1,1,260394,324
CONTROL_TS_6_A,1,test,P,229,1,656,391,P,1,<rshift>,1,1,261394,378
CONTROL_TS_6_A,1,test,P,230,4,856,591,P,1,<rshift>,1,1,262394,306
CONTROL_TS_6_A,1,test,P,231,1,656,391,P,1,<rshift>,1,1,263394,536
CONTROL_TS_6_A,1,test,P,232,1,656,391,P,1,<rshift>,1,1,264394,444
CONTROL_TS_6_A,1,test,P,233,3,656,591,P,1,<rshift>,1,1,265394,489
CONTROL_TS_6_A,1,test,P,234,1,656,391,P,1,<rshift>,1,1,266394,384
CONTROL_TS_6_A,1,test,P,235,3,656,591,P,1,<rshift>,1,1,267394,375
CONTROL_TS_6_A,1,test,P,236,2,856,391,R,0,NONE,0,1,268394,950
CONTROL_TS_6_A,1,test,P,237,4,856,591,P,1,<rshift>,1,1,269393,312
CONTROL_TS_6_A,1,test,P,238,1,656,391,R,0,NONE,0,1,270394,950
CONTROL_TS_6_A,1,test,P,239,4,856,591,P,1,<rshift>,1,1,271393,284
CONTROL_TS_6_A,1,test,P,240,1,656,391,R,0,NONE,0,1,272395,950
CONTROL_TS_6_A,1,test,P,241,1,656,391,P,1,<rshift>,1,1,273394,482
CONTROL_TS_6_A,1,test,P,242,2,856,391,P,1,<rshift>,1,1,274394,383
CONTROL_TS_6_A,1,test,P,243,3,656,591,R,0,<rshift>,1,0,275394,364
CONTROL_TS_6_A,1,test,P,244,3,656,591,R,0,NONE,0,1,276395,950
CONTROL_TS_6_A,1,test,P,245,3,656,591,P,1,<rshift>,1,1,277393,454
CONTROL_TS_6_A,1,test,P,246,4,856,591,P,1,<rshift>,1,1,278394,346
CONTROL_TS_6_A,1,test,P,247,3,656,591,P,1,<rshift>,1,1,279394,377
CONTROL_TS_6_A,1,test,P,248,1,656,391,P,1,<rshift>,1,1,280394,335
CONTROL_TS_6_A,1,test,P,249,2,856,391,P,1,<rshift>,1,1,281394,388
CONTROL_TS_6_A,1,test,P,250,4,856,591,P,1,<rshift>,1,1,282394,397
CONTROL_TS_6_A,1,test,P,251,3,656,591,P,1,<rshift>,1,1,283394,396
CONTROL_TS_6_A,1,test,P,252,4,856,591,P,1,<rshift>,1,1,284394,360
CONTROL_TS_6_A,1,test,P,253,4,856,591,P,1,<rshift>,1,1,285394,393
CONTROL_TS_6_A,1,test,P,254,4,856,591,P,1,<rshift>,1,1,286394,483
CONTROL_TS_6_A,1,test,P,255,3,656,591,P,1,<rshift>,1,1,287394,560
CONTROL_TS_6_A,1,test,P,256,4,856,591,P,1,<rshift>,1,1,288394,412
CONTROL_TS_6_A,1,test,P,257,3,656,591,P,1,<rshift>,1,1,289394,352
CONTROL_TS_6_A,1,test,P,258,2,856,391,P,1,<rshift>,1,1,290394,472
CONTROL_TS_6_A,1,test,P,259,2,856,391,P,1,<rshift>,1,1,291394,363
CONTROL_TS_6_A,1,test,P,260,4,856,591,P,1,<rshift>,1,1,292394,407
CONTROL_TS_6_A,1,test,P,261,1,656,391,R,0,NONE,0,1,293394,950
CONTROL_TS_6_A,1,test,P,262,4,856,591,P,1,<rshift>,1,1,294394,333
CONTROL_TS_6_A,1,test,P,263,2,856,391,P,1,<rshift>,1,1,295394,434
CONTROL_TS_6_A,1,test,P,264,1,656,391,R,0,NONE,0,1,296394,950
CONTROL_TS_6_A,1,test,P,265,2,856,391,R,0,NONE,0,1,297394,950
CONTROL_TS_6_A,1,test,P,266,1,656,391,P,1,<rshift>,1,1,298394,562
CONTROL_TS_6_A,1,test,P,267,1,656,391,P,1,<rshift>,1,1,299394,537
CONTROL_TS_6_A,1,test,P,268,3,656,591,P,1,<rshift>,1,1,300394,401
CONTROL_TS_6_A,1,test,P,269,3,656,591,P,1,<rshift>,1,1,301394,426
CONTROL_TS_6_A,1,test,P,270,3,656,591,P,1,<rshift>,1,1,302394,367
CONTROL_TS_6_A,1,test,P,271,3,656,591,P,1,<rshift>,1,1,303394,327
CONTROL_TS_6_A,1,test,P,272,1,656,391,P,1,<rshift>,1,1,304394,409
CONTROL_TS_6_A,1,test,P,273,3,656,591,R,0,<rshift>,1,0,305394,342
CONTROL_TS_6_A,1,test,P,274,2,856,391,P,1,<rshift>,1,1,306394,302
CONTROL_TS_6_A,1,test,P,275,4,856,591,P,1,<rshift>,1,1,307394,355
CONTROL_TS_6_A,1,test,P,276,3,656,591,P,1,<rshift>,1,1,308394,313
CONTROL_TS_6_A,1,test,P,277,4,856,591,R,0,<rshift>,1,0,309394,345
CONTROL_TS_6_A,1,test,P,278,1,656,391,P,1,<rshift>,1,1,310394,271
CONTROL_TS_6_A,1,test,P,279,1,656,391,P,1,<rshift>,1,1,311394,377
CONTROL_TS_6_A,1,test,P,280,3,656,591,P,1,<rshift>,1,1,312394,433
CONTROL_TS_6_A,1,test,P,281,3,656,591,P,1,<rshift>,1,1,313394,385
CONTROL_TS_6_A,1,test,P,282,4,856,591,P,1,<rshift>,1,1,314394,352
CONTROL_TS_6_A,1,test,P,283,2,856,391,R,0,<rshift>,1,0,315394,320
CONTROL_TS_6_A,1,test,P,284,4,856,591,P,1,<rshift>,1,1,316394,336
CONTROL_TS_6_A,1,test,P,285,1,656,391,P,1,<rshift>,1,1,317394,314
CONTROL_TS_6_A,1,test,P,286,3,656,591,P,1,<rshift>,1,1,318394,386
CONTROL_TS_6_A,1,test,P,287,2,856,391,P,1,<rshift>,1,1,319394,383
CONTROL_TS_6_A,1,test,P,288,4,856,591,R,0,NONE,0,1,320394,950
CONTROL_TS_6_A,1,test,P,289,2,856,391,P,1,<rshift>,1,1,321394,363
CONTROL_TS_6_A,1,test,P,290,4,856,591,P,1,<rshift>,1,1,322394,421
CONTROL_TS_6_A,1,test,P,291,2,856,391,P,1,<rshift>,1,1,323394,403
CONTROL_TS_6_A,1,test,P,292,2,856,391,P,1,<rshift>,1,1,324394,387
CONTROL_TS_6_A,1,test,P,293,2,856,391,R,0,NONE,0,1,325394,950
CONTROL_TS_6_A,1,test,P,294,3,656,591,P,1,<rshift>,1,1,326394,273
CONTROL_TS_6_A,1,test,P,295,1,656,391,P,1,<rshift>,1,1,327394,309
CONTROL_TS_6_A,1,test,P,296,2,856,391,P,1,<rshift>,1,1,328394,357
CONTROL_TS_6_A,1,test,P,297,4,856,591,P,1,<rshift>,1,1,329394,307
CONTROL_TS_6_A,1,test,P,298,1,656,391,P,1,<rshift>,1,1,330394,263
CONTROL_TS_6_A,1,test,P,299,1,656,391,P,1,<rshift>,1,1,331394,368
CONTROL_TS_6_A,1,test,P,300,1,656,391,P,1,<rshift>,1,1,332394,331
CONTROL_TS_6_A,2,practice,R,1,4,856,591,R,1,<rshift>,1,1,338047,565
CONTROL_TS_6_A,2,practice,R,2,3,656,591,P,0,NONE,0,1,339046,950
CONTROL_TS_6_A,2,practice,R,3,4,856,591,P,0,NONE,0,1,340045,951
CONTROL_TS_6_A,2,practice,R,4,3,656,591,R,1,<rshift>,1,1,341045,401
CONTROL_TS_6_A,2,practice,R,5,4,856,591,R,1,<rshift>,1,1,342046,372
CONTROL_TS_6_A,2,practice,R,6,3,656,591,R,1,<rshift>,1,1,343046,303
CONTROL_TS_6_A,2,practice,R,7,1,656,391,R,1,<rshift>,1,1,344046,452
CONTROL_TS_6_A,2,practice,R,8,3,656,591,R,1,<rshift>,1,1,345046,325
CONTROL_TS_6_A,2,practice,R,9,3,656,591,R,1,<rshift>,1,1,346046,353
CONTROL_TS_6_A,2,practice,R,10,2,856,391,R,1,<rshift>,1,1,347046,296
CONTROL_TS_6_A,3,test,R,1,1,656,391,P,0,NONE,0,1,351474,950
CONTROL_TS_6_A,3,test,R,2,2,856,391,R,1,<rshift>,1,1,352473,348
CONTROL_TS_6_A,3,test,R,3,2,856,391,P,0,<rshift>,1,0,353473,521
CONTROL_TS_6_A,3,test,R,4,2,856,391,R,1,<rshift>,1,1,354473,430
CONTROL_TS_6_A,3,test,R,5,4,856,591,R,1,<rshift>,1,1,355473,387
CONTROL_TS_6_A,3,test,R,6,4,856,591,R,1,<rshift>,1,1,356473,360
CONTROL_TS_6_A,3,test,R,7,4,856,591,R,1,<rshift>,1,1,357473,430
CONTROL_TS_6_A,3,test,R,8,4,856,591,R,1,<rshift>,1,1,358473,468
CONTROL_TS_6_A,3,test,R,9,1,656,391,R,1,<rshift>,1,1,359473,380
CONTROL_TS_6_A,3,test,R,10,1,656,391,R,1,<rshift>,1,1,360473,384
CONTROL_TS_6_A,3,test,R,11,3,656,591,R,1,<rshift>,1,1,361473,473
CONTROL_TS_6_A,3,test,R,12,1,656,391,R,1,<rshift>,1,1,362473,377
CONTROL_TS_6_A,3,test,R,13,1,656,391,P,0,NONE,0,1,363473,950
CONTROL_TS_6_A,3,test,R,14,3,656,591,R,1,<rshift>,1,1,364473,307
CONTROL_TS_6_A,3,test,R,15,3,656,591,P,0,NONE,0,1,365473,950
CONTROL_TS_6_A,3,test,R,16,4,856,591,R,1,<rshift>,1,1,366472,384
CONTROL_TS_6_A,3,test,R,17,2,856,391,R,1,<rshift>,1,1,367473,312
CONTROL_TS_6_A,3,test,R,18,1,656,391,P,0,<rshift>,1,0,368473,290
CONTROL_TS_6_A,3,test,R,19,2,856,391,P,0,<rshift>,1,0,369473,280
CONTROL_TS_6_A,3,test,R,20,2,856,391,R,1,<rshift>,1,1,370473,445
CONTROL_TS_6_A,3,test,R,21,4,856,591,P,0,<rshift>,1,0,371473,337
CONTROL_TS_6_A,3,test,R,22,1,656,391,R,1,<rshift>,1,1,372473,343
CONTROL_TS_6_A,3,test,R,23,2,856,391,R,1,<rshift>,1,1,373473,409
CONTROL_TS_6_A,3,test,R,24,4,856,591,R,1,<rshift>,1,1,374473,542
CONTROL_TS_6_A,3,test,R,25,3,656,591,R,1,<rshift>,1,1,375473,369
CONTROL_TS_6_A,3,test,R,26,4,856,591,R,1,<rshift>,1,1,376473,374
CONTROL_TS_6_A,3,test,R,27,2,856,391,R,1,<rshift>,1,1,377473,309
CONTROL_TS_6_A,3,test,R,28,4,856,591,R,1,<rshift>,1,1,378473,351
CONTROL_TS_6_A,3,test,R,29,4,856,591,R,1,<rshift>,1,1,379473,428
CONTROL_TS_6_A,3,test,R,30,2,856,391,R,1,<rshift>,1,1,380473,414
CONTROL_TS_6_A,3,test,R,31,4,856,591,R,1,<rshift>,1,1,381473,485
CONTROL_TS_6_A,3,test,R,32,1,656,391,R,1,<rshift>,1,1,382473,312
CONTROL_TS_6_A,3,test,R,33,3,656,591,R,1,<rshift>,1,1,383473,359
CONTROL_TS_6_A,3,test,R,34,1,656,391,R,1,<rshift>,1,1,384473,393
CONTROL_TS_6_A,3,test,R,35,1,656,391,R,1,<rshift>,1,1,385473,454
CONTROL_TS_6_A,3,test,R,36,1,656,391,R,1,<rshift>,1,1,386473,460
CONTROL_TS_6_A,3,test,R,37,2,856,391,R,1,<rshift>,1,1,387473,343
CONTROL_TS_6_A,3,test,R,38,1,656,391,R,1,<rshift>,1,1,388473,406
CONTROL_TS_6_A,3,test,R,39,3,656,591,R,1,<rshift>,1,1,389473,399
CONTROL_TS_6_A,3,test,R,40,1,656,391,R,1,<rshift>,1,1,390473,434
CONTROL_TS_6_A,3,test,R,41,4,856,591,R,1,<rshift>,1,1,391473,237
CONTROL_TS_6_A,3,test,R,42,4,856,591,R,1,<rshift>,1,1,392473,344
CONTROL_TS_6_A,3,test,R,43,2,856,391,R,1,<rshift>,1,1,393473,294
CONTROL_TS_6_A,3,test,R,44,2,856,391,R,1,<rshift>,1,1,394473,392
CONTROL_TS_6_A,3,test,R,45,4,856,591,R,1,<rshift>,1,1,395473,291
CONTROL_TS_6_A,3,test,R,46,1,656,391,R,1,<rshift>,1,1,396473,283
CONTROL_TS_6_A,3,test,R,47,4,856,591,P,0,<rshift>,1,0,397473,281
CONTROL_TS_6_A,3,test,R,48,3,656,591,P,0,<rshift>,1,0,398473,288
CONTROL_TS_6_A,3,test,R,49,1,656,391,P,0,<rshift>,1,0,399473,358
CONTROL_TS_6_A,3,test,R,50,2,856,391,R,1,<rshift>,1,1,400473,299
CONTROL_TS_6_A,3,test,R,51,1,656,391,R,1,<rshift>,1,1,401473,439
CONTROL_TS_6_A,3,test,R,52,4,856,591,R,1,<rshift>,1,1,402473,297
CONTROL_TS_6_A,3,test,R,53,4,856,591,R,1,<rshift>,1,1,403473,212
CONTROL_TS_6_A,3,test,R,54,3,656,591,R,1,<rshift>,1,1,404473,335
CONTROL_TS_6_A,3,test,R,55,4,856,591,R,1,<rshift>,1,1,405473,284
CONTROL_TS_6_A,3,test,R,56,3,656,591,R,1,<rshift>,1,1,406473,335
CONTROL_TS_6_A,3,test,R,57,4,856,591,R,1,<rshift>,1,1,407473,256
CONTROL_TS_6_A,3,test,R,58,2,856,391,P,0,<rshift>,1,0,408473,263
CONTROL_TS_6_A,3,test,R,59,2,856,391,R,1,<rshift>,1,1,409473,574
CONTROL_TS_6_A,3,test,R,60,2,856,391,R,1,<rshift>,1,1,410473,364
CONTROL_TS_6_A,3,test,R,61,1,656,391,R,1,<rshift>,1,1,411473,345
CONTROL_TS_6_A,3,test,R,62,1,656,391,R,1,<rshift>,1,1,412473,426
CONTROL_TS_6_A,3,test,R,63,1,656,391,R,1,<rshift>,1,1,413473,471
CONTROL_TS_6_A,3,test,R,64,3,656,591,P,0,<rshift>,1,0,414474,331
CONTROL_TS_6_A,3,test,R,65,4,856,591,R,1,<rshift>,1,1,415473,233
CONTROL_TS_6_A,3,test,R,66,1,656,391,P,0,<rshift>,1,0,416473,254
CONTROL_TS_6_A,3,test,R,67,4,856,591,R,1,<rshift>,1,1,417473,263
CONTROL_TS_6_A,3,test,R,68,2,856,391,R,1,<rshift>,1,1,418472,332
CONTROL_TS_6_A,3,test,R,69,1,656,391,R,1,<rshift>,1,1,419473,223
CONTROL_TS_6_A,3,test,R,70,4,856,591,R,1,<rshift>,1,1,420473,238
CONTROL_TS_6_A,3,test,R,71,1,656,391,R,1,<rshift>,1,1,421473,295
CONTROL_TS_6_A,3,test,R,72,2,856,391,R,1,<rshift>,1,1,422473,310
CONTROL_TS_6_A,3,test,R,73,1,656,391,R,1,<rshift>,1,1,423473,301
CONTROL_TS_6_A,3,test,R,74,4,856,591,P,0,NONE,0,1,424473,950
CONTROL_TS_6_A,3,test,R,75,1,656,391,R,1,<rshift>,1,1,425473,306
CONTROL_TS_6_A,3,test,R,76,2,856,391,R,1,<rshift>,1,1,426473,521
CONTROL_TS_6_A,3,test,R,77,2,856,391,R,1,<rshift>,1,1,427473,363
CONTROL_TS_6_A,3,test,R,78,1,656,391,R,1,<rshift>,1,1,428473,312
CONTROL_TS_6_A,3,test,R,79,4,856,591,R,1,<rshift>,1,1,429473,404
CONTROL_TS_6_A,3,test,R,80,2,856,391,R,1,<rshift>,1,1,430473,299
CONTROL_TS_6_A,3,test,R,81,1,656,391,R,1,<rshift>,1,1,431474,260
CONTROL_TS_6_A,3,test,R,82,4,856,591,R,1,<rshift>,1,1,432473,277
CONTROL_TS_6_A,3,test,R,83,3,656,591,P,0,<rshift>,1,0,433473,362
CONTROL_TS_6_A,3,test,R,84,2,856,391,R,1,<rshift>,1,1,434473,288
CONTROL_TS_6_A,3,test,R,85,1,656,391,R,1,<rshift>,1,1,435473,276
CONTROL_TS_6_A,3,test,R,86,1,656,391,P,0,<rshift>,1,0,436473,375
CONTROL_TS_6_A,3,test,R,87,1,656,391,R,1,<rshift>,1,1,437473,478
CONTROL_TS_6_A,3,test,R,88,2,856,391,R,1,<rshift>,1,1,438473,352
CONTROL_TS_6_A,3,test,R,89,1,656,391,R,1,<rshift>,1,1,439473,550
CONTROL_TS_6_A,3,test,R,90,2,856,391,R,1,<rshift>,1,1,440473,323
CONTROL_TS_6_A,3,test,R,91,4,856,591,R,1,<rshift>,1,1,441474,331
CONTROL_TS_6_A,3,test,R,92,2,856,391,R,1,<rshift>,1,1,442473,429
CONTROL_TS_6_A,3,test,R,93,2,856,391,P,0,NONE,0,1,443473,950
CONTROL_TS_6_A,3,test,R,94,3,656,591,P,0,<rshift>,1,0,444472,340
CONTROL_TS_6_A,3,test,R,95,1,656,391,R,1,<rshift>,1,1,445474,285
CONTROL_TS_6_A,3,test,R,96,4,856,591,P,0,<rshift>,1,0,446473,293
CONTROL_TS_6_A,3,test,R,97,4,856,591,P,0,NONE,0,1,447473,950
CONTROL_TS_6_A,3,test,R,98,3,656,591,R,1,<rshift>,1,1,448473,339
CONTROL_TS_6_A,3,test,R,99,2,856,391,R,1,<rshift>,1,1,449472,291
CONTROL_TS_6_A,3,test,R,100,1,656,391,R,1,<rshift>,1,1,450473,300
CONTROL_TS_6_A,3,test,R,101,2,856,391,R,1,<rshift>,1,1,451473,292
CONTROL_TS_6_A,3,test,R,102,4,856,591,R,1,<rshift>,1,1,452473,405
CONTROL_TS_6_A,3,test,R,103,4,856,591,R,1,<rshift>,1,1,453473,436
CONTROL_TS_6_A,3,test,R,104,1,656,391,R,1,<rshift>,1,1,454473,260
CONTROL_TS_6_A,3,test,R,105,1,656,391,P,0,NONE,0,1,455473,950
CONTROL_TS_6_A,3,test,R,106,2,856,391,R,1,<rshift>,1,1,456472,266
CONTROL_TS_6_A,3,test,R,107,2,856,391,R,1,<rshift>,1,1,457473,392
CONTROL_TS_6_A,3,test,R,108,4,856,591,P,0,<rshift>,1,0,458474,440
CONTROL_TS_6_A,3,test,R,109,4,856,591,P,0,NONE,0,1,459473,950
CONTROL_TS_6_A,3,test,R,110,4,856,591,R,1,<rshift>,1,1,460472,341
CONTROL_TS_6_A,3,test,R,111,3,656,591,R,1,<rshift>,1,1,461473,337
CONTROL_TS_6_A,3,test,R,112,2,856,391,R,1,<rshift>,1,1,462473,280
CONTROL_TS_6_A,3,test,R,113,3,656,591,P,0,<rshift>,1,0,463473,423
CONTROL_TS_6_A,3,test,R,114,1,656,391,R,1,<rshift>,1,1,464473,324
CONTROL_TS_6_A,3,test,R,115,3,656,591,R,1,<rshift>,1,1,465473,427
CONTROL_TS_6_A,3,test,R,116,4,856,591,R,1,<rshift>,1,1,466473,313
CONTROL_TS_6_A,3,test,R,117,4,856,591,P,0,NONE,0,1,467473,950
CONTROL_TS_6_A,3,test,R,118,4,856,591,P,0,NONE,0,1,468472,951
CONTROL_TS_6_A,3,test,R,119,3,656,591,R,1,<rshift>,1,1,469473,468
CONTROL_TS_6_A,3,test,R,120,2,856,391,R,1,<rshift>,1,1,470473,343
CONTROL_TS_6_A,3,test,R,121,2,856,391,P,0,NONE,0,1,471473,950
CONTROL_TS_6_A,3,test,R,122,2,856,391,R,1,<rshift>,1,1,472473,426
CONTROL_TS_6_A,3,test,R,123,1,656,391,R,1,<rshift>,1,1,473473,279
CONTROL_TS_6_A,3,test,R,124,3,656,591,R,1,<rshift>,1,1,474473,275
CONTROL_TS_6_A,3,test,R,125,2,856,391,R,1,<rshift>,1,1,475473,316
CONTROL_TS_6_A,3,test,R,126,4,856,591,P,0,<rshift>,1,0,476473,233
CONTROL_TS_6_A,3,test,R,127,1,656,391,R,1,<rshift>,1,1,477473,266
CONTROL_TS_6_A,3,test,R,128,4,856,591,R,1,<rshift>,1,1,478473,338
CONTROL_TS_6_A,3,test,R,129,4,856,591,R,1,<rshift>,1,1,479473,387
CONTROL_TS_6_A,3,test,R,130,2,856,391,R,1,<rshift>,1,1,480473,462
CONTROL_TS_6_A,3,test,R,131,3,656,591,P,0,<rshift>,1,0,481473,348
CONTROL_TS_6_A,3,test,R,132,4,856,591,R,1,<rshift>,1,1,482473,381
CONTROL_TS_6_A,3,test,R,133,4,856,591,R,1,<rshift>,1,1,483473,394
CONTROL_TS_6_A,3,test,R,134,1,656,391,R,1,<rshift>,1,1,484473,292
CONTROL_TS_6_A,3,test,R,135,1,656,391,P,0,NONE,0,1,485473,950
CONTROL_TS_6_A,3,test,R,136,2,856,391,R,1,<rshift>,1,1,486473,328
CONTROL_TS_6_A,3,test,R,137,4,856,591,P,0,<rshift>,1,0,487473,235
CONTROL_TS_6_A,3,test,R,138,4,856,591,R,1,<rshift>,1,1,488473,359
CONTROL_TS_6_A,3,test,R,139,2,856,391,P,0,NONE,0,1,489473,950
CONTROL_TS_6_A,3,test,R,140,4,856,591,P,0,NONE,0,1,490473,950
CONTROL_TS_6_A,3,test,R,141,1,656,391,R,1,<rshift>,1,1,491473,350
CONTROL_TS_6_A,3,test,R,142,4,856,591,R,1,<rshift>,1,1,492473,341
CONTROL_TS_6_A,3,test,R,143,1,656,391,R,1,<rshift>,1,1,493473,302
CONTROL_TS_6_A,3,test,R,144,4,856,591,P,0,<rshift>,1,0,494473,341
CONTROL_TS_6_A,3,test,R,145,3,656,591,R,1,<rshift>,1,1,495473,382
CONTROL_TS_6_A,3,test,R,146,3,656,591,R,1,<rshift>,1,1,496473,428
CONTROL_TS_6_A,3,test,R,147,3,656,591,R,1,<rshift>,1,1,497473,397
CONTROL_TS_6_A,3,test,R,148,2,856,391,R,1,<rshift>,1,1,498473,299
CONTROL_TS_6_A,3,test,R,149,4,856,591,R,1,<rshift>,1,1,499473,393
CONTROL_TS_6_A,3,test,R,150,1,656,391,R,1,<rshift>,1,1,500473,255
CONTROL_TS_6_A,3,test,R,151,3,656,591,R,1,<rshift>,1,1,501473,289
CONTROL_TS_6_A,3,test,R,152,2,856,391,R,1,<rshift>,1,1,502473,274
CONTROL_TS_6_A,3,test,R,153,1,656,391,R,1,<rshift>,1,1,503473,218
CONTROL_TS_6_A,3,test,R,154,4,856,591,R,1,<rshift>,1,1,504473,242
CONTROL_TS_6_A,3,test,R,155,3,656,591,R,1,<rshift>,1,1,505473,193
CONTROL_TS_6_A,3,test,R,156,4,856,591,P,0,<rshift>,1,0,506473,363
CONTROL_TS_6_A,3,test,R,157,1,656,391,R,1,<rshift>,1,1,507473,271
CONTROL_TS_6_A,3,test,R,158,1,656,391,R,1,<rshift>,1,1,508473,323
CONTROL_TS_6_A,3,test,R,159,2,856,391,P,0,<rshift>,1,0,509473,168
CONTROL_TS_6_A,3,test,R,160,3,656,591,R,1,<rshift>,1,1,510473,521
CONTROL_TS_6_A,3,test,R,161,2,856,391,R,1,<rshift>,1,1,511473,298
CONTROL_TS_6_A,3,test,R,162,3,656,591,R,1,<rshift>,1,1,512473,347
CONTROL_TS_6_A,3,test,R,163,4,856,591,R,1,<rshift>,1,1,513473,329
CONTROL_TS_6_A,3,test,R,164,3,656,591,R,1,<rshift>,1,1,514473,416
CONTROL_TS_6_A,3,test,R,165,4,856,591,R,1,<rshift>,1,1,515473,397
CONTROL_TS_6_A,3,test,R,166,2,856,391,P,0,<rshift>,1,0,516474,333
CONTROL_TS_6_A,3,test,R,167,4,856,591,R,1,<rshift>,1,1,517474,421
CONTROL_TS_6_A,3,test,R,168,4,856,591,R,1,<rshift>,1,1,518473,467
CONTROL_TS_6_A,3,test,R,169,1,656,391,P,0,<rshift>,1,0,519473,328
CONTROL_TS_6_A,3,test,R,170,2,856,391,R,1,<rshift>,1,1,520473,284
CONTROL_TS_6_A,3,test,R,171,3,656,591,R,1,<rshift>,1,1,521473,299
CONTROL_TS_6_A,3,test,R,172,2,856,391,R,1,<rshift>,1,1,522473,281
CONTROL_TS_6_A,3,test,R,173,4,856,591,R,1,<rshift>,1,1,523473,358
CONTROL_TS_6_A,3,test,R,174,1,656,391,R,1,<rshift>,1,1,524474,331
CONTROL_TS_6_A,3,test,R,175,1,656,391,R,1,<rshift>,1,1,525473,416
CONTROL_TS_6_A,3,test,R,176,2,856,391,R,1,<rshift>,1,1,526473,349
CONTROL_TS_6_A,3,test,R,177,3,656,591,R,1,<rshift>,1,1,527473,337
CONTROL_TS_6_A,3,test,R,178,1,656,391,R,1,<rshift>,1,1,528473,295
CONTROL_TS_6_A,3,test,R,179,1,656,391,R,1,<rshift>,1,1,529473,399
CONTROL_TS_6_A,3,test,R,180,3,656,591,R,1,<rshift>,1,1,530473,377
CONTROL_TS_6_A,3,test,R,181,3,656,591,R,1,<rshift>,1,1,531473,361
CONTROL_TS_6_A,3,test,R,182,4,856,591,R,1,<rshift>,1,1,532473,307
CONTROL_TS_6_A,3,test,R,183,1,656,391,P,0,<rshift>,1,0,533473,277
CONTROL_TS_6_A,3,test,R,184,3,656,591,R,1,<rshift>,1,1,534473,305
CONTROL_TS_6_A,3,test,R,185,4,856,591,R,1,<rshift>,1,1,535473,307
CONTROL_TS_6_A,3,test,R,186,4,856,591,R,1,<rshift>,1,1,536473,439
CONTROL_TS_6_A,3,test,R,187,2,856,391,R,1,<rshift>,1,1,537473,340
CONTROL_TS_6_A,3,test,R,188,1,656,391,R,1,<rshift>,1,1,538473,287
CONTROL_TS_6_A,3,test,R,189,3,656,591,R,1,<rshift>,1,1,539473,276
CONTROL_TS_6_A,3,test,R,190,3,656,591,R,1,<rshift>,1,1,540473,390
CONTROL_TS_6_A,3,test,R,191,2,856,391,R,1,<rshift>,1,1,541472,277
CONTROL_TS_6_A,3,test,R,192,2,856,391,R,1,<rshift>,1,1,542473,276
CONTROL_TS_6_A,3,test,R,193,3,656,591,R,1,<rshift>,1,1,543473,311
CONTROL_TS_6_A,3,test,R,194,2,856,391,R,1,<rshift>,1,1,544473,270
CONTROL_TS_6_A,3,test,R,195,3,656,591,P,0,<rshift>,1,0,545473,221
CONTROL_TS_6_A,3,test,R,196,3,656,591,P,0,NONE,0,1,546473,950
CONTROL_TS_6_A,3,test,R,197,1,656,391,R,1,<rshift>,1,1,547472,330
CONTROL_TS_6_A,3,test,R,198,2,856,391,R,1,<rshift>,1,1,548473,346
CONTROL_TS_6_A,3,test,R,199,1,656,391,R,1,<rshift>,1,1,549473,259
CONTROL_TS_6_A,3,test,R,200,1,656,391,R,1,<rshift>,1,1,550473,304
CONTROL_TS_6_A,3,test,R,201,4,856,591,R,1,<rshift>,1,1,551473,402
CONTROL_TS_6_A,3,test,R,202,1,656,391,R,1,<rshift>,1,1,552473,295
CONTROL_TS_6_A,3,test,R,203,3,656,591,P,0,<rshift>,1,0,553473,370
CONTROL_TS_6_A,3,test,R,204,4,856,591,P,0,<rshift>,1,0,554473,318
CONTROL_TS_6_A,3,test,R,205,2,856,391,R,1,<rshift>,1,1,555473,500
CONTROL_TS_6_A,3,test,R,206,2,856,391,R,1,<rshift>,1,1,556473,355
CONTROL_TS_6_A,3,test,R,207,3,656,591,R,1,<rshift>,1,1,557473,567
CONTROL_TS_6_A,3,test,R,208,3,656,591,R,1,<rshift>,1,1,558473,351
CONTROL_TS_6_A,3,test,R,209,1,656,391,R,1,<rshift>,1,1,559473,293
CONTROL_TS_6_A,3,test,R,210,2,856,391,R,1,<rshift>,1,1,560473,299
CONTROL_TS_6_A,3,test,R,211,2,856,391,R,1,<rshift>,1,1,561473,366
CONTROL_TS_6_A,3,test,R,212,4,856,591,R,1,<rshift>,1,1,562473,359
CONTROL_TS_6_A,3,test,R,213,3,656,591,R,1,<rshift>,1,1,563473,336
CONTROL_TS_6_A,3,test,R,214,4,856,591,R,1,<rshift>,1,1,564473,296
CONTROL_TS_6_A,3,test,R,215,4,856,591,P,0,<rshift>,1,0,565473,369
CONTROL_TS_6_A,3,test,R,216,2,856,391,P,0,<rshift>,1,0,566473,350
CONTROL_TS_6_A,3,test,R,217,4,856,591,R,1,<rshift>,1,1,567473,395
CONTROL_TS_6_A,3,test,R,218,4,856,591,P,0,NONE,0,1,568473,950
CONTROL_TS_6_A,3,test,R,219,3,656,591,R,1,<rshift>,1,1,569472,463
CONTROL_TS_6_A,3,test,R,220,2,856,391,R,1,<rshift>,1,1,570474,463
CONTROL_TS_6_A,3,test,R,221,4,856,591,R,1,<rshift>,1,1,571473,355
CONTROL_TS_6_A,3,test,R,222,1,656,391,P,0,NONE,0,1,572473,950
CONTROL_TS_6_A,3,test,R,223,2,856,391,R,1,<rshift>,1,1,573473,296
CONTROL_TS_6_A,3,test,R,224,2,856,391,R,1,<rshift>,1,1,574473,332
CONTROL_TS_6_A,3,test,R,225,2,856,391,R,1,<rshift>,1,1,575473,349
CONTROL_TS_6_A,3,test,R,226,3,656,591,R,1,<rshift>,1,1,576473,373
CONTROL_TS_6_A,3,test,R,227,4,856,591,R,1,<rshift>,1,1,577473,353
CONTROL_TS_6_A,3,test,R,228,2,856,391,R,1,<rshift>,1,1,578473,301
CONTROL_TS_6_A,3,test,R,229,3,656,591,P,0,<rshift>,1,0,579473,250
CONTROL_TS_6_A,3,test,R,230,1,656,391,P,0,<rshift>,1,0,580473,279
CONTROL_TS_6_A,3,test,R,231,4,856,591,R,1,<rshift>,1,1,581473,259
CONTROL_TS_6_A,3,test,R,232,4,856,591,R,1,<rshift>,1,1,582473,409
CONTROL_TS_6_A,3,test,R,233,2,856,391,R,1,<rshift>,1,1,583473,347
CONTROL_TS_6_A,3,test,R,234,1,656,391,R,1,<rshift>,1,1,584473,446
CONTROL_TS_6_A,3,test,R,235,2,856,391,R,1,<rshift>,1,1,585473,328
CONTROL_TS_6_A,3,test,R,236,3,656,591,R,1,<rshift>,1,1,586473,416
CONTROL_TS_6_A,3,test,R,237,2,856,391,R,1,<rshift>,1,1,587473,256
CONTROL_TS_6_A,3,test,R,238,2,856,391,R,1,<rshift>,1,1,588473,393
CONTROL_TS_6_A,3,test,R,239,3,656,591,R,1,<rshift>,1,1,589473,361
CONTROL_TS_6_A,3,test,R,240,4,856,591,P,0,NONE,0,1,590473,950
CONTROL_TS_6_A,3,test,R,241,2,856,391,R,1,<rshift>,1,1,591472,404
CONTROL_TS_6_A,3,test,R,242,4,856,591,R,1,<rshift>,1,1,592473,448
CONTROL_TS_6_A,3,test,R,243,2,856,391,R,1,<rshift>,1,1,593473,367
CONTROL_TS_6_A,3,test,R,244,3,656,591,R,1,<rshift>,1,1,594473,379
CONTROL_TS_6_A,3,test,R,245,1,656,391,R,1,<rshift>,1,1,595473,431
CONTROL_TS_6_A,3,test,R,246,1,656,391,R,1,<rshift>,1,1,596473,565
CONTROL_TS_6_A,3,test,R,247,3,656,591,R,1,<rshift>,1,1,597473,409
CONTROL_TS_6_A,3,test,R,248,1,656,391,R,1,<rshift>,1,1,598473,617
CONTROL_TS_6_A,3,test,R,249,4,856,591,R,1,<rshift>,1,1,599473,340
CONTROL_TS_6_A,3,test,R,250,3,656,591,R,1,<rshift>,1,1,600473,377
CONTROL_TS_6_A,3,test,R,251,2,856,391,R,1,<rshift>,1,1,601473,262
CONTROL_TS_6_A,3,test,R,252,4,856,591,R,1,<rshift>,1,1,602473,404
CONTROL_TS_6_A,3,test,R,253,4,856,591,R,1,<rshift>,1,1,603473,380
CONTROL_TS_6_A,3,test,R,254,3,656,591,R,1,<rshift>,1,1,604473,367
CONTROL_TS_6_A,3,test,R,255,4,856,591,R,1,<rshift>,1,1,605473,346
CONTROL_TS_6_A,3,test,R,256,1,656,391,R,1,<rshift>,1,1,606473,359
CONTROL_TS_6_A,3,test,R,257,4,856,591,R,1,<rshift>,1,1,607473,351
CONTROL_TS_6_A,3,test,R,258,1,656,391,R,1,<rshift>,1,1,608473,312
CONTROL_TS_6_A,3,test,R,259,3,656,591,R,1,<rshift>,1,1,609473,348
CONTROL_TS_6_A,3,test,R,260,3,656,591,R,1,<rshift>,1,1,610473,352
CONTROL_TS_6_A,3,test,R,261,1,656,391,R,1,<rshift>,1,1,611473,354
CONTROL_TS_6_A,3,test,R,262,1,656,391,R,1,<rshift>,1,1,612473,296
CONTROL_TS_6_A,3,test,R,263,3,656,591,P,0,<rshift>,1,0,613473,246
CONTROL_TS_6_A,3,test,R,264,4,856,591,R,1,<rshift>,1,1,614473,521
CONTROL_TS_6_A,3,test,R,265,3,656,591,P,0,<rshift>,1,0,615473,394
CONTROL_TS_6_A,3,test,R,266,1,656,391,R,1,<rshift>,1,1,616473,330
CONTROL_TS_6_A,3,test,R,267,1,656,391,P,0,<rshift>,1,0,617473,362
CONTROL_TS_6_A,3,test,R,268,3,656,591,P,0,<rshift>,1,0,618473,312
CONTROL_TS_6_A,3,test,R,269,3,656,591,R,1,<rshift>,1,1,619473,625
CONTROL_TS_6_A,3,test,R,270,1,656,391,R,1,<rshift>,1,1,620473,487
CONTROL_TS_6_A,3,test,R,271,1,656,391,R,1,<rshift>,1,1,621473,432
CONTROL_TS_6_A,3,test,R,272,4,856,591,R,1,<rshift>,1,1,622473,360
CONTROL_TS_6_A,3,test,R,273,1,656,391,P,0,<rshift>,1,0,623473,295
CONTROL_TS_6_A,3,test,R,274,3,656,591,R,1,<rshift>,1,1,624473,328
CONTROL_TS_6_A,3,test,R,275,3,656,591,R,1,<rshift>,1,1,625473,480
CONTROL_TS_6_A,3,test,R,276,3,656,591,R,1,<rshift>,1,1,626473,520
CONTROL_TS_6_A,3,test,R,277,4,856,591,R,1,<rshift>,1,1,627474,373
CONTROL_TS_6_A,3,test,R,278,3,656,591,R,1,<rshift>,1,1,628473,409
CONTROL_TS_6_A,3,test,R,279,1,656,391,R,1,<rshift>,1,1,629473,304
CONTROL_TS_6_A,3,test,R,280,3,656,591,R,1,<rshift>,1,1,630473,413
CONTROL_TS_6_A,3,test,R,281,2,856,391,R,1,<rshift>,1,1,631473,332
CONTROL_TS_6_A,3,test,R,282,3,656,591,R,1,<rshift>,1,1,632473,444
CONTROL_TS_6_A,3,test,R,283,2,856,391,R,1,<rshift>,1,1,633473,304
CONTROL_TS_6_A,3,test,R,284,2,856,391,R,1,<rshift>,1,1,634473,403
CONTROL_TS_6_A,3,test,R,285,4,856,591,R,1,<rshift>,1,1,635473,296
CONTROL_TS_6_A,3,test,R,286,4,856,591,R,1,<rshift>,1,1,636473,414
CONTROL_TS_6_A,3,test,R,287,3,656,591,R,1,<rshift>,1,1,637473,313
CONTROL_TS_6_A,3,test,R,288,1,656,391,P,0,<rshift>,1,0,638473,240
CONTROL_TS_6_A,3,test,R,289,2,856,391,P,0,<rshift>,1,0,639473,251
CONTROL_TS_6_A,3,test,R,290,1,656,391,R,1,<rshift>,1,1,640474,204
CONTROL_TS_6_A,3,test,R,291,2,856,391,R,1,<rshift>,1,1,641473,297
CONTROL_TS_6_A,3,test,R,292,4,856,591,R,1,<rshift>,1,1,642473,331
CONTROL_TS_6_A,3,test,R,293,1,656,391,P,0,<rshift>,1,0,643473,309
CONTROL_TS_6_A,3,test,R,294,4,856,591,R,1,<rshift>,1,1,644473,236
CONTROL_TS_6_A,3,test,R,295,1,656,391,P,0,<rshift>,1,0,645473,301
CONTROL_TS_6_A,3,test,R,296,3,656,591,P,0,<rshift>,1,0,646473,310
CONTROL_TS_6_A,3,test,R,297,2,856,391,R,1,NONE,0,0,647473,950
CONTROL_TS_6_A,3,test,R,298,3,656,591,R,1,<rshift>,1,1,648472,356
CONTROL_TS_6_A,3,test,R,299,4,856,591,R,1,<rshift>,1,1,649473,304
CONTROL_TS_6_A,3,test,R,300,2,856,391,R,1,<rshift>,1,1,650473,310
