subnum,block,type,correctresponse,trial,choice,x,y,stim,present,response,responded,corr,starttime,rt
Control_TS_7A,0,practice,P,1,3,620,550,P,1,<rshift>,1,1,19056,752
Control_TS_7A,0,practice,P,2,2,820,350,P,1,<rshift>,1,1,20055,478
Control_TS_7A,0,practice,P,3,3,620,550,R,0,<rshift>,1,0,21055,330
Control_TS_7A,0,practice,P,4,2,820,350,P,1,<rshift>,1,1,22445,492
Control_TS_7A,0,practice,P,5,2,820,350,P,1,NONE,0,0,23054,950
Control_TS_7A,0,practice,P,6,2,820,350,P,1,<rshift>,1,1,25049,576
Control_TS_7A,0,practice,P,7,3,620,550,P,1,NONE,0,0,25640,950
Control_TS_7A,0,practice,P,8,2,820,350,P,1,<rshift>,1,1,27635,498
Control_TS_7A,0,practice,P,9,2,820,350,P,1,NONE,0,0,28163,950
Control_TS_7A,0,practice,P,10,1,620,350,R,0,<rshift>,1,0,30158,515
Control_TS_7A,1,test,P,1,2,820,350,P,1,<rshift>,1,1,37908,549
Control_TS_7A,1,test,P,2,2,820,350,P,1,<rshift>,1,1,38908,581
Control_TS_7A,1,test,P,3,4,820,550,P,1,<rshift>,1,1,39907,522
Control_TS_7A,1,test,P,4,4,820,550,P,1,<rshift>,1,1,40908,396
Control_TS_7A,1,test,P,5,4,820,550,P,1,<rshift>,1,1,41907,379
Control_TS_7A,1,test,P,6,1,620,350,P,1,<rshift>,1,1,42908,524
Control_TS_7A,1,test,P,7,1,620,350,P,1,<rshift>,1,1,43908,427
Control_TS_7A,1,test,P,8,1,620,350,R,0,<rshift>,1,0,44907,515
Control_TS_7A,1,test,P,9,3,620,550,P,1,<rshift>,1,1,45908,525
Control_TS_7A,1,test,P,10,4,820,550,P,1,<rshift>,1,1,46908,490
Control_TS_7A,1,test,P,11,3,620,550,P,1,<rshift>,1,1,47907,588
Control_TS_7A,1,test,P,12,4,820,550,P,1,<rshift>,1,1,48908,496
Control_TS_7A,1,test,P,13,4,820,550,P,1,<rshift>,1,1,49908,389
Control_TS_7A,1,test,P,14,2,820,350,R,0,NONE,0,1,50908,950
Control_TS_7A,1,test,P,15,1,620,350,P,1,<rshift>,1,1,51907,315
Control_TS_7A,1,test,P,16,2,820,350,R,0,NONE,0,1,52908,950
Control_TS_7A,1,test,P,17,4,820,550,P,1,<rshift>,1,1,53908,343
Control_TS_7A,1,test,P,18,3,620,550,P,1,<rshift>,1,1,54908,515
Control_TS_7A,1,test,P,19,4,820,550,P,1,<rshift>,1,1,55908,525
Control_TS_7A,1,test,P,20,1,620,350,R,0,NONE,0,1,56907,950
Control_TS_7A,1,test,P,21,4,820,550,R,0,NONE,0,1,57907,950
Control_TS_7A,1,test,P,22,3,620,550,P,1,<rshift>,1,1,58907,441
Control_TS_7A,1,test,P,23,4,820,550,R,0,NONE,0,1,59907,950
Control_TS_7A,1,test,P,24,2,820,350,P,1,<rshift>,1,1,60908,425
Control_TS_7A,1,test,P,25,1,620,350,P,1,<rshift>,1,1,61907,578
Control_TS_7A,1,test,P,26,4,820,550,P,1,<rshift>,1,1,62908,574
Control_TS_7A,1,test,P,27,2,820,350,P,1,<rshift>,1,1,63907,428
Control_TS_7A,1,test,P,28,4,820,550,P,1,<rshift>,1,1,64907,403
Control_TS_7A,1,test,P,29,1,620,350,R,0,<rshift>,1,0,65908,382
Control_TS_7A,1,test,P,30,3,620,550,P,1,<rshift>,1,1,66907,466
Control_TS_7A,1,test,P,31,4,820,550,P,1,<rshift>,1,1,67907,419
Control_TS_7A,1,test,P,32,4,820,550,P,1,<rshift>,1,1,68907,469
Control_TS_7A,1,test,P,33,1,620,350,P,1,<rshift>,1,1,69908,516
Control_TS_7A,1,test,P,34,2,820,350,P,1,<rshift>,1,1,70907,356
Control_TS_7A,1,test,P,35,3,620,550,P,1,<rshift>,1,1,71907,515
Control_TS_7A,1,test,P,36,1,620,350,P,1,<rshift>,1,1,72908,362
Control_TS_7A,1,test,P,37,3,620,550,P,1,<rshift>,1,1,73907,432
Control_TS_7A,1,test,P,38,3,620,550,R,0,<rshift>,1,0,74907,362
Control_TS_7A,1,test,P,39,1,620,350,R,0,NONE,0,1,75908,950
Control_TS_7A,1,test,P,40,2,820,350,P,1,<rshift>,1,1,76907,469
Control_TS_7A,1,test,P,41,4,820,550,R,0,<rshift>,1,0,77907,345
Control_TS_7A,1,test,P,42,1,620,350,P,1,<rshift>,1,1,78907,537
Control_TS_7A,1,test,P,43,1,620,350,P,1,<rshift>,1,1,79907,515
Control_TS_7A,1,test,P,44,1,620,350,P,1,<rshift>,1,1,80908,520
Control_TS_7A,1,test,P,45,3,620,550,P,1,<rshift>,1,1,81907,479
Control_TS_7A,1,test,P,46,1,620,350,R,0,NONE,0,1,82907,950
Control_TS_7A,1,test,P,47,4,820,550,P,1,<rshift>,1,1,83907,431
Control_TS_7A,1,test,P,48,2,820,350,P,1,<rshift>,1,1,84908,365
Control_TS_7A,1,test,P,49,1,620,350,P,1,<rshift>,1,1,85908,533
Control_TS_7A,1,test,P,50,1,620,350,P,1,<rshift>,1,1,86907,515
Control_TS_7A,1,test,P,51,3,620,550,R,0,NONE,0,1,87907,951
Control_TS_7A,1,test,P,52,3,620,550,P,1,<rshift>,1,1,88908,442
Control_TS_7A,1,test,P,53,4,820,550,R,0,NONE,0,1,89908,950
Control_TS_7A,1,test,P,54,4,820,550,P,1,<rshift>,1,1,90907,600
Control_TS_7A,1,test,P,55,3,620,550,P,1,<rshift>,1,1,91908,537
Control_TS_7A,1,test,P,56,1,620,350,P,1,<rshift>,1,1,92907,479
Control_TS_7A,1,test,P,57,2,820,350,P,1,<rshift>,1,1,93907,616
Control_TS_7A,1,test,P,58,2,820,350,P,1,<rshift>,1,1,94907,487
Control_TS_7A,1,test,P,59,2,820,350,R,0,NONE,0,1,95907,950
Control_TS_7A,1,test,P,60,3,620,550,P,1,<rshift>,1,1,96907,445
Control_TS_7A,1,test,P,61,1,620,350,P,1,<rshift>,1,1,97908,378
Control_TS_7A,1,test,P,62,3,620,550,P,1,<rshift>,1,1,98907,367
Control_TS_7A,1,test,P,63,3,620,550,P,1,<rshift>,1,1,99908,407
Control_TS_7A,1,test,P,64,2,820,350,P,1,<rshift>,1,1,100907,384
Control_TS_7A,1,test,P,65,3,620,550,R,0,<rshift>,1,0,101908,398
Control_TS_7A,1,test,P,66,4,820,550,P,1,<rshift>,1,1,102907,440
Control_TS_7A,1,test,P,67,4,820,550,P,1,<rshift>,1,1,103908,403
Control_TS_7A,1,test,P,68,2,820,350,P,1,<rshift>,1,1,104907,386
Control_TS_7A,1,test,P,69,4,820,550,P,1,<rshift>,1,1,105907,398
Control_TS_7A,1,test,P,70,4,820,550,P,1,<rshift>,1,1,106907,399
Control_TS_7A,1,test,P,71,2,820,350,R,0,NONE,0,1,107907,951
Control_TS_7A,1,test,P,72,3,620,550,P,1,<rshift>,1,1,108908,321
Control_TS_7A,1,test,P,73,3,620,550,P,1,<rshift>,1,1,109907,397
Control_TS_7A,1,test,P,74,3,620,550,R,0,NONE,0,1,110907,950
Control_TS_7A,1,test,P,75,3,620,550,R,0,NONE,0,1,111907,950
Control_TS_7A,1,test,P,76,3,620,550,P,1,<rshift>,1,1,112907,498
Control_TS_7A,1,test,P,77,2,820,350,R,0,NONE,0,1,113907,950
Control_TS_7A,1,test,P,78,4,820,550,P,1,<rshift>,1,1,114907,486
Control_TS_7A,1,test,P,79,3,620,550,P,1,<rshift>,1,1,115908,625
Control_TS_7A,1,test,P,80,4,820,550,P,1,<rshift>,1,1,116907,384
Control_TS_7A,1,test,P,81,1,620,350,P,1,<rshift>,1,1,117908,310
Control_TS_7A,1,test,P,82,3,620,550,P,1,<rshift>,1,1,118907,374
Control_TS_7A,1,test,P,83,4,820,550,P,1,<rshift>,1,1,119908,318
Control_TS_7A,1,test,P,84,1,620,350,P,1,<rshift>,1,1,120908,347
Control_TS_7A,1,test,P,85,2,820,350,P,1,<rshift>,1,1,121907,316
Control_TS_7A,1,test,P,86,3,620,550,P,1,<rshift>,1,1,122908,321
Control_TS_7A,1,test,P,87,1,620,350,P,1,<rshift>,1,1,123907,397
Control_TS_7A,1,test,P,88,2,820,350,P,1,<rshift>,1,1,124907,325
Control_TS_7A,1,test,P,89,4,820,550,P,1,<rshift>,1,1,125907,326
Control_TS_7A,1,test,P,90,4,820,550,P,1,<rshift>,1,1,126907,344
Control_TS_7A,1,test,P,91,4,820,550,P,1,<rshift>,1,1,127907,420
Control_TS_7A,1,test,P,92,2,820,350,P,1,<rshift>,1,1,128907,633
Control_TS_7A,1,test,P,93,3,620,550,P,1,<rshift>,1,1,129908,411
Control_TS_7A,1,test,P,94,2,820,350,P,1,<rshift>,1,1,130907,327
Control_TS_7A,1,test,P,95,1,620,350,R,0,<rshift>,1,0,131907,329
Control_TS_7A,1,test,P,96,4,820,550,P,1,<rshift>,1,1,132907,376
Control_TS_7A,1,test,P,97,4,820,550,P,1,<rshift>,1,1,133907,379
Control_TS_7A,1,test,P,98,1,620,350,P,1,<rshift>,1,1,134908,620
Control_TS_7A,1,test,P,99,1,620,350,P,1,<rshift>,1,1,135907,498
Control_TS_7A,1,test,P,100,4,820,550,P,1,<rshift>,1,1,136907,404
Control_TS_7A,1,test,P,101,1,620,350,P,1,<rshift>,1,1,137907,365
Control_TS_7A,1,test,P,102,2,820,350,P,1,<rshift>,1,1,138907,338
Control_TS_7A,1,test,P,103,3,620,550,P,1,<rshift>,1,1,139908,356
Control_TS_7A,1,test,P,104,1,620,350,P,1,<rshift>,1,1,140908,336
Control_TS_7A,1,test,P,105,4,820,550,R,0,<rshift>,1,0,141908,336
Control_TS_7A,1,test,P,106,2,820,350,P,1,<rshift>,1,1,142907,321
Control_TS_7A,1,test,P,107,4,820,550,P,1,<rshift>,1,1,143907,437
Control_TS_7A,1,test,P,108,4,820,550,P,1,<rshift>,1,1,144908,542
Control_TS_7A,1,test,P,109,2,820,350,P,1,<rshift>,1,1,145907,466
Control_TS_7A,1,test,P,110,3,620,550,P,1,<rshift>,1,1,146907,482
Control_TS_7A,1,test,P,111,4,820,550,R,0,<rshift>,1,0,147907,383
Control_TS_7A,1,test,P,112,1,620,350,P,1,<rshift>,1,1,148907,414
Control_TS_7A,1,test,P,113,3,620,550,P,1,<rshift>,1,1,149907,536
Control_TS_7A,1,test,P,114,2,820,350,R,0,NONE,0,1,150908,950
Control_TS_7A,1,test,P,115,3,620,550,P,1,<rshift>,1,1,151908,384
Control_TS_7A,1,test,P,116,2,820,350,P,1,<rshift>,1,1,152908,539
Control_TS_7A,1,test,P,117,1,620,350,P,1,<rshift>,1,1,153907,539
Control_TS_7A,1,test,P,118,4,820,550,P,1,<rshift>,1,1,154907,565
Control_TS_7A,1,test,P,119,4,820,550,P,1,<rshift>,1,1,155908,553
Control_TS_7A,1,test,P,120,3,620,550,P,1,<rshift>,1,1,156908,412
Control_TS_7A,1,test,P,121,3,620,550,R,0,<rshift>,1,0,157907,410
Control_TS_7A,1,test,P,122,2,820,350,P,1,<rshift>,1,1,158908,339
Control_TS_7A,1,test,P,123,3,620,550,P,1,<rshift>,1,1,159907,407
Control_TS_7A,1,test,P,124,3,620,550,P,1,<rshift>,1,1,160907,379
Control_TS_7A,1,test,P,125,2,820,350,P,1,<rshift>,1,1,161907,300
Control_TS_7A,1,test,P,126,3,620,550,P,1,<rshift>,1,1,162908,411
Control_TS_7A,1,test,P,127,3,620,550,P,1,<rshift>,1,1,163908,391
Control_TS_7A,1,test,P,128,1,620,350,P,1,<rshift>,1,1,164908,413
Control_TS_7A,1,test,P,129,2,820,350,P,1,<rshift>,1,1,165907,375
Control_TS_7A,1,test,P,130,2,820,350,P,1,<rshift>,1,1,166907,480
Control_TS_7A,1,test,P,131,4,820,550,P,1,<rshift>,1,1,167908,359
Control_TS_7A,1,test,P,132,3,620,550,P,1,<rshift>,1,1,168907,365
Control_TS_7A,1,test,P,133,2,820,350,P,1,<rshift>,1,1,169908,384
Control_TS_7A,1,test,P,134,1,620,350,R,0,NONE,0,1,170908,950
Control_TS_7A,1,test,P,135,1,620,350,P,1,<rshift>,1,1,171907,412
Control_TS_7A,1,test,P,136,4,820,550,P,1,<rshift>,1,1,172907,515
Control_TS_7A,1,test,P,137,2,820,350,P,1,<rshift>,1,1,173908,497
Control_TS_7A,1,test,P,138,3,620,550,P,1,<rshift>,1,1,174908,450
Control_TS_7A,1,test,P,139,2,820,350,P,1,<rshift>,1,1,175907,366
Control_TS_7A,1,test,P,140,4,820,550,R,0,<rshift>,1,0,176907,322
Control_TS_7A,1,test,P,141,4,820,550,P,1,<rshift>,1,1,177907,467
Control_TS_7A,1,test,P,142,1,620,350,R,0,NONE,0,1,178907,950
Control_TS_7A,1,test,P,143,4,820,550,P,1,<rshift>,1,1,179907,346
Control_TS_7A,1,test,P,144,3,620,550,P,1,<rshift>,1,1,180907,451
Control_TS_7A,1,test,P,145,2,820,350,P,1,<rshift>,1,1,181907,280
Control_TS_7A,1,test,P,146,1,620,350,R,0,<rshift>,1,0,182907,346
Control_TS_7A,1,test,P,147,2,820,350,P,1,<rshift>,1,1,183908,459
Control_TS_7A,1,test,P,148,4,820,550,P,1,<rshift>,1,1,184907,408
Control_TS_7A,1,test,P,149,2,820,350,R,0,NONE,0,1,185907,950
Control_TS_7A,1,test,P,150,3,620,550,P,1,<rshift>,1,1,186907,297
Control_TS_7A,1,test,P,151,4,820,550,P,1,<rshift>,1,1,187907,365
Control_TS_7A,1,test,P,152,3,620,550,P,1,<rshift>,1,1,188907,492
Control_TS_7A,1,test,P,153,3,620,550,P,1,<rshift>,1,1,189907,425
Control_TS_7A,1,test,P,154,4,820,550,P,1,<rshift>,1,1,190908,344
Control_TS_7A,1,test,P,155,3,620,550,R,0,<rshift>,1,0,191908,367
Control_TS_7A,1,test,P,156,2,820,350,P,1,<rshift>,1,1,192908,413
Control_TS_7A,1,test,P,157,3,620,550,P,1,<rshift>,1,1,193907,494
Control_TS_7A,1,test,P,158,1,620,350,P,1,<rshift>,1,1,194907,345
Control_TS_7A,1,test,P,159,2,820,350,R,0,<rshift>,1,0,195908,500
Control_TS_7A,1,test,P,160,4,820,550,P,1,<rshift>,1,1,196907,324
Control_TS_7A,1,test,P,161,2,820,350,R,0,NONE,0,1,197907,950
Control_TS_7A,1,test,P,162,2,820,350,P,1,<rshift>,1,1,198907,488
Control_TS_7A,1,test,P,163,3,620,550,P,1,<rshift>,1,1,199907,385
Control_TS_7A,1,test,P,164,4,820,550,P,1,<rshift>,1,1,200907,410
Control_TS_7A,1,test,P,165,3,620,550,P,1,<rshift>,1,1,201907,348
Control_TS_7A,1,test,P,166,1,620,350,P,1,<rshift>,1,1,202907,352
Control_TS_7A,1,test,P,167,2,820,350,P,1,<rshift>,1,1,203907,329
Control_TS_7A,1,test,P,168,4,820,550,P,1,<rshift>,1,1,204908,361
Control_TS_7A,1,test,P,169,3,620,550,R,0,NONE,0,1,205908,950
Control_TS_7A,1,test,P,170,4,820,550,P,1,<rshift>,1,1,206907,335
Control_TS_7A,1,test,P,171,4,820,550,P,1,<rshift>,1,1,207908,530
Control_TS_7A,1,test,P,172,2,820,350,R,0,<rshift>,1,0,208907,375
Control_TS_7A,1,test,P,173,4,820,550,R,0,NONE,0,1,209908,950
Control_TS_7A,1,test,P,174,2,820,350,P,1,<rshift>,1,1,210907,417
Control_TS_7A,1,test,P,175,4,820,550,P,1,<rshift>,1,1,211907,418
Control_TS_7A,1,test,P,176,4,820,550,R,0,NONE,0,1,212907,950
Control_TS_7A,1,test,P,177,1,620,350,P,1,<rshift>,1,1,213907,423
Control_TS_7A,1,test,P,178,1,620,350,P,1,<rshift>,1,1,214907,412
Control_TS_7A,1,test,P,179,4,820,550,P,1,<rshift>,1,1,215907,495
Control_TS_7A,1,test,P,180,4,820,550,P,1,<rshift>,1,1,216907,376
Control_TS_7A,1,test,P,181,4,820,550,R,0,NONE,0,1,217908,950
Control_TS_7A,1,test,P,182,4,820,550,P,1,<rshift>,1,1,218907,470
Control_TS_7A,1,test,P,183,4,820,550,P,1,<rshift>,1,1,219907,485
Control_TS_7A,1,test,P,184,1,620,350,P,1,<rshift>,1,1,220907,615
Control_TS_7A,1,test,P,185,1,620,350,P,1,<rshift>,1,1,221907,495
Control_TS_7A,1,test,P,186,3,620,550,P,1,<rshift>,1,1,222907,620
Control_TS_7A,1,test,P,187,4,820,550,R,0,NONE,0,1,223907,950
Control_TS_7A,1,test,P,188,4,820,550,P,1,<rshift>,1,1,224907,364
Control_TS_7A,1,test,P,189,3,620,550,P,1,<rshift>,1,1,225908,365
Control_TS_7A,1,test,P,190,3,620,550,P,1,<rshift>,1,1,226907,378
Control_TS_7A,1,test,P,191,4,820,550,P,1,<rshift>,1,1,227907,468
Control_TS_7A,1,test,P,192,3,620,550,P,1,<rshift>,1,1,228907,395
Control_TS_7A,1,test,P,193,2,820,350,R,0,<rshift>,1,0,229908,353
Control_TS_7A,1,test,P,194,4,820,550,P,1,<rshift>,1,1,230908,347
Control_TS_7A,1,test,P,195,1,620,350,P,1,<rshift>,1,1,231908,598
Control_TS_7A,1,test,P,196,1,620,350,R,0,NONE,0,1,232908,950
Control_TS_7A,1,test,P,197,3,620,550,P,1,<rshift>,1,1,233907,323
Control_TS_7A,1,test,P,198,1,620,350,P,1,<rshift>,1,1,234908,515
Control_TS_7A,1,test,P,199,3,620,550,P,1,<rshift>,1,1,235907,542
Control_TS_7A,1,test,P,200,3,620,550,R,0,NONE,0,1,236907,950
Control_TS_7A,1,test,P,201,3,620,550,P,1,<rshift>,1,1,237907,412
Control_TS_7A,1,test,P,202,2,820,350,P,1,<rshift>,1,1,238908,372
Control_TS_7A,1,test,P,203,1,620,350,P,1,<rshift>,1,1,239908,337
Control_TS_7A,1,test,P,204,4,820,550,R,0,<rshift>,1,0,240907,322
Control_TS_7A,1,test,P,205,3,620,550,R,0,<rshift>,1,0,241907,398
Control_TS_7A,1,test,P,206,2,820,350,P,1,<rshift>,1,1,242908,429
Control_TS_7A,1,test,P,207,4,820,550,P,1,<rshift>,1,1,243908,484
Control_TS_7A,1,test,P,208,1,620,350,P,1,<rshift>,1,1,244907,415
Control_TS_7A,1,test,P,209,1,620,350,P,1,<rshift>,1,1,245907,323
Control_TS_7A,1,test,P,210,3,620,550,P,1,<rshift>,1,1,246907,369
Control_TS_7A,1,test,P,211,2,820,350,R,0,<rshift>,1,0,247908,367
Control_TS_7A,1,test,P,212,2,820,350,P,1,<rshift>,1,1,248908,360
Control_TS_7A,1,test,P,213,1,620,350,P,1,<rshift>,1,1,249908,361
Control_TS_7A,1,test,P,214,3,620,550,P,1,<rshift>,1,1,250907,384
Control_TS_7A,1,test,P,215,2,820,350,P,1,<rshift>,1,1,251908,341
Control_TS_7A,1,test,P,216,4,820,550,P,1,<rshift>,1,1,252908,370
Control_TS_7A,1,test,P,217,3,620,550,P,1,<rshift>,1,1,253907,361
Control_TS_7A,1,test,P,218,1,620,350,P,1,<rshift>,1,1,254907,360
Control_TS_7A,1,test,P,219,1,620,350,P,1,<rshift>,1,1,255907,389
Control_TS_7A,1,test,P,220,3,620,550,P,1,<rshift>,1,1,256907,436
Control_TS_7A,1,test,P,221,2,820,350,P,1,<rshift>,1,1,257908,313
Control_TS_7A,1,test,P,222,2,820,350,R,0,<rshift>,1,0,258908,458
Control_TS_7A,1,test,P,223,4,820,550,P,1,<rshift>,1,1,259907,328
Control_TS_7A,1,test,P,224,1,620,350,R,0,NONE,0,1,260907,950
Control_TS_7A,1,test,P,225,3,620,550,P,1,<rshift>,1,1,261907,350
Control_TS_7A,1,test,P,226,1,620,350,R,0,NONE,0,1,262907,950
Control_TS_7A,1,test,P,227,4,820,550,P,1,<rshift>,1,1,263907,351
Control_TS_7A,1,test,P,228,4,820,550,P,1,<rshift>,1,1,264908,397
Control_TS_7A,1,test,P,229,1,620,350,P,1,<rshift>,1,1,265908,356
Control_TS_7A,1,test,P,230,1,620,350,P,1,<rshift>,1,1,266908,429
Control_TS_7A,1,test,P,231,4,820,550,P,1,<rshift>,1,1,267907,515
Control_TS_7A,1,test,P,232,1,620,350,P,1,<rshift>,1,1,268908,317
Control_TS_7A,1,test,P,233,2,820,350,P,1,<rshift>,1,1,269907,343
Control_TS_7A,1,test,P,234,3,620,550,P,1,<rshift>,1,1,270908,550
Control_TS_7A,1,test,P,235,3,620,550,P,1,<rshift>,1,1,271907,372
Control_TS_7A,1,test,P,236,2,820,350,P,1,<rshift>,1,1,272908,309
Control_TS_7A,1,test,P,237,3,620,550,P,1,<rshift>,1,1,273907,347
Control_TS_7A,1,test,P,238,3,620,550,P,1,<rshift>,1,1,274907,403
Control_TS_7A,1,test,P,239,2,820,350,P,1,<rshift>,1,1,275907,393
Control_TS_7A,1,test,P,240,2,820,350,P,1,<rshift>,1,1,276907,381
Control_TS_7A,1,test,P,241,2,820,350,P,1,<rshift>,1,1,277907,423
Control_TS_7A,1,test,P,242,1,620,350,R,0,NONE,0,1,278907,950
Control_TS_7A,1,test,P,243,2,820,350,R,0,<rshift>,1,0,279907,521
Control_TS_7A,1,test,P,244,1,620,350,P,1,<rshift>,1,1,280908,521
Control_TS_7A,1,test,P,245,3,620,550,P,1,<rshift>,1,1,281907,529
Control_TS_7A,1,test,P,246,3,620,550,R,0,<rshift>,1,0,282907,446
Control_TS_7A,1,test,P,247,1,620,350,P,1,<rshift>,1,1,283908,423
Control_TS_7A,1,test,P,248,3,620,550,P,1,<rshift>,1,1,284907,531
Control_TS_7A,1,test,P,249,2,820,350,P,1,<rshift>,1,1,285907,515
Control_TS_7A,1,test,P,250,2,820,350,P,1,<rshift>,1,1,286907,415
Control_TS_7A,1,test,P,251,2,820,350,P,1,<rshift>,1,1,287908,542
Control_TS_7A,1,test,P,252,1,620,350,P,1,<rshift>,1,1,288908,476
Control_TS_7A,1,test,P,253,1,620,350,P,1,<rshift>,1,1,289908,420
Control_TS_7A,1,test,P,254,4,820,550,P,1,<rshift>,1,1,290907,515
Control_TS_7A,1,test,P,255,4,820,550,P,1,<rshift>,1,1,291907,470
Control_TS_7A,1,test,P,256,2,820,350,P,1,<rshift>,1,1,292908,541
Control_TS_7A,1,test,P,257,3,620,550,R,0,NONE,0,1,293908,950
Control_TS_7A,1,test,P,258,2,820,350,P,1,<rshift>,1,1,294907,357
Control_TS_7A,1,test,P,259,2,820,350,P,1,<rshift>,1,1,295908,616
Control_TS_7A,1,test,P,260,2,820,350,P,1,<rshift>,1,1,296907,549
Control_TS_7A,1,test,P,261,4,820,550,P,1,<rshift>,1,1,297907,472
Control_TS_7A,1,test,P,262,2,820,350,P,1,<rshift>,1,1,298907,378
Control_TS_7A,1,test,P,263,1,620,350,P,1,<rshift>,1,1,299907,358
Control_TS_7A,1,test,P,264,1,620,350,P,1,<rshift>,1,1,300907,329
Control_TS_7A,1,test,P,265,1,620,350,P,1,<rshift>,1,1,301908,326
Control_TS_7A,1,test,P,266,1,620,350,R,0,<rshift>,1,0,302908,321
Control_TS_7A,1,test,P,267,2,820,350,P,1,<rshift>,1,1,303908,311
Control_TS_7A,1,test,P,268,2,820,350,P,1,<rshift>,1,1,304908,369
Control_TS_7A,1,test,P,269,1,620,350,P,1,<rshift>,1,1,305908,384
Control_TS_7A,1,test,P,270,2,820,350,P,1,<rshift>,1,1,306907,300
Control_TS_7A,1,test,P,271,4,820,550,R,0,NONE,0,1,307908,950
Control_TS_7A,1,test,P,272,1,620,350,P,1,<rshift>,1,1,308908,321
Control_TS_7A,1,test,P,273,3,620,550,R,0,NONE,0,1,309908,950
Control_TS_7A,1,test,P,274,1,620,350,P,1,<rshift>,1,1,310907,413
Control_TS_7A,1,test,P,275,3,620,550,R,0,NONE,0,1,311907,950
Control_TS_7A,1,test,P,276,3,620,550,P,1,<rshift>,1,1,312907,476
Control_TS_7A,1,test,P,277,4,820,550,P,1,<rshift>,1,1,313907,468
Control_TS_7A,1,test,P,278,2,820,350,P,1,<rshift>,1,1,314908,368
Control_TS_7A,1,test,P,279,3,620,550,P,1,<rshift>,1,1,315907,376
Control_TS_7A,1,test,P,280,1,620,350,R,0,<rshift>,1,0,316907,334
Control_TS_7A,1,test,P,281,4,820,550,P,1,<rshift>,1,1,317907,460
Control_TS_7A,1,test,P,282,2,820,350,P,1,<rshift>,1,1,318908,375
Control_TS_7A,1,test,P,283,4,820,550,P,1,<rshift>,1,1,319907,381
Control_TS_7A,1,test,P,284,2,820,350,P,1,<rshift>,1,1,320908,386
Control_TS_7A,1,test,P,285,3,620,550,P,1,<rshift>,1,1,321908,470
Control_TS_7A,1,test,P,286,3,620,550,R,0,NONE,0,1,322907,951
Control_TS_7A,1,test,P,287,1,620,350,P,1,<rshift>,1,1,323907,342
Control_TS_7A,1,test,P,288,2,820,350,R,0,<rshift>,1,0,324907,307
Control_TS_7A,1,test,P,289,1,620,350,P,1,<rshift>,1,1,325908,363
Control_TS_7A,1,test,P,290,2,820,350,R,0,<rshift>,1,0,326907,349
Control_TS_7A,1,test,P,291,2,820,350,P,1,<rshift>,1,1,327908,422
Control_TS_7A,1,test,P,292,3,620,550,P,1,<rshift>,1,1,328907,361
Control_TS_7A,1,test,P,293,2,820,350,P,1,<rshift>,1,1,329907,339
Control_TS_7A,1,test,P,294,1,620,350,P,1,<rshift>,1,1,330908,331
Control_TS_7A,1,test,P,295,3,620,550,P,1,<rshift>,1,1,331908,331
Control_TS_7A,1,test,P,296,3,620,550,P,1,<rshift>,1,1,332907,391
Control_TS_7A,1,test,P,297,3,620,550,P,1,<rshift>,1,1,333907,411
Control_TS_7A,1,test,P,298,4,820,550,P,1,<rshift>,1,1,334907,350
Control_TS_7A,1,test,P,299,2,820,350,R,0,NONE,0,1,335907,950
Control_TS_7A,1,test,P,300,4,820,550,P,1,<rshift>,1,1,336907,444
Control_TS_7A,2,practice,R,1,1,620,350,R,1,<rshift>,1,1,345644,422
Control_TS_7A,2,practice,R,2,4,820,550,P,0,NONE,0,1,346644,950
Control_TS_7A,2,practice,R,3,4,820,550,R,1,<rshift>,1,1,347643,262
Control_TS_7A,2,practice,R,4,2,820,350,R,1,<rshift>,1,1,348643,453
Control_TS_7A,2,practice,R,5,1,620,350,R,1,<rshift>,1,1,349643,488
Control_TS_7A,2,practice,R,6,3,620,550,R,1,<rshift>,1,1,350643,421
Control_TS_7A,2,practice,R,7,2,820,350,R,1,<rshift>,1,1,351644,424
Control_TS_7A,2,practice,R,8,2,820,350,P,0,NONE,0,1,352643,950
Control_TS_7A,2,practice,R,9,1,620,350,R,1,<rshift>,1,1,353643,338
Control_TS_7A,2,practice,R,10,1,620,350,R,1,<rshift>,1,1,354643,536
Control_TS_7A,3,test,R,1,2,820,350,R,1,<rshift>,1,1,360378,581
Control_TS_7A,3,test,R,2,1,620,350,R,1,<rshift>,1,1,361377,355
Control_TS_7A,3,test,R,3,3,620,550,R,1,<rshift>,1,1,362377,354
Control_TS_7A,3,test,R,4,3,620,550,R,1,<rshift>,1,1,363377,352
Control_TS_7A,3,test,R,5,3,620,550,R,1,<rshift>,1,1,364377,441
Control_TS_7A,3,test,R,6,2,820,350,R,1,<rshift>,1,1,365377,466
Control_TS_7A,3,test,R,7,3,620,550,P,0,NONE,0,1,366377,950
Control_TS_7A,3,test,R,8,4,820,550,P,0,NONE,0,1,367377,950
Control_TS_7A,3,test,R,9,3,620,550,P,0,NONE,0,1,368377,950
Control_TS_7A,3,test,R,10,4,820,550,R,1,<rshift>,1,1,369377,490
Control_TS_7A,3,test,R,11,3,620,550,R,1,<rshift>,1,1,370377,495
Control_TS_7A,3,test,R,12,1,620,350,R,1,<rshift>,1,1,371377,340
Control_TS_7A,3,test,R,13,1,620,350,R,1,<rshift>,1,1,372377,423
Control_TS_7A,3,test,R,14,4,820,550,P,0,NONE,0,1,373377,950
Control_TS_7A,3,test,R,15,4,820,550,R,1,<rshift>,1,1,374377,660
Control_TS_7A,3,test,R,16,3,620,550,R,1,<rshift>,1,1,375377,408
Control_TS_7A,3,test,R,17,2,820,350,R,1,<rshift>,1,1,376377,319
Control_TS_7A,3,test,R,18,4,820,550,P,0,<rshift>,1,0,377377,352
Control_TS_7A,3,test,R,19,4,820,550,R,1,<rshift>,1,1,378377,397
Control_TS_7A,3,test,R,20,3,620,550,R,1,NONE,0,0,379377,950
Control_TS_7A,3,test,R,21,1,620,350,R,1,<rshift>,1,1,380377,345
Control_TS_7A,3,test,R,22,1,620,350,R,1,<rshift>,1,1,381377,376
Control_TS_7A,3,test,R,23,4,820,550,P,0,NONE,0,1,382378,950
Control_TS_7A,3,test,R,24,4,820,550,P,0,NONE,0,1,383377,950
Control_TS_7A,3,test,R,25,3,620,550,P,0,NONE,0,1,384377,950
Control_TS_7A,3,test,R,26,1,620,350,R,1,<rshift>,1,1,385377,349
Control_TS_7A,3,test,R,27,2,820,350,R,1,<rshift>,1,1,386377,490
Control_TS_7A,3,test,R,28,1,620,350,R,1,<rshift>,1,1,387377,353
Control_TS_7A,3,test,R,29,3,620,550,R,1,<rshift>,1,1,388377,435
Control_TS_7A,3,test,R,30,3,620,550,R,1,<rshift>,1,1,389378,413
Control_TS_7A,3,test,R,31,4,820,550,R,1,<rshift>,1,1,390377,416
Control_TS_7A,3,test,R,32,4,820,550,R,1,<rshift>,1,1,391377,398
Control_TS_7A,3,test,R,33,2,820,350,R,1,<rshift>,1,1,392377,444
Control_TS_7A,3,test,R,34,2,820,350,P,0,NONE,0,1,393377,950
Control_TS_7A,3,test,R,35,1,620,350,R,1,<rshift>,1,1,394377,388
Control_TS_7A,3,test,R,36,2,820,350,R,1,<rshift>,1,1,395377,612
Control_TS_7A,3,test,R,37,2,820,350,R,1,<rshift>,1,1,396377,418
Control_TS_7A,3,test,R,38,2,820,350,R,1,<rshift>,1,1,397378,414
Control_TS_7A,3,test,R,39,1,620,350,R,1,<rshift>,1,1,398377,461
Control_TS_7A,3,test,R,40,3,620,550,P,0,<rshift>,1,0,399377,383
Control_TS_7A,3,test,R,41,3,620,550,R,1,<rshift>,1,1,400377,540
Control_TS_7A,3,test,R,42,1,620,350,R,1,<rshift>,1,1,401377,489
Control_TS_7A,3,test,R,43,4,820,550,R,1,<rshift>,1,1,402377,371
Control_TS_7A,3,test,R,44,3,620,550,R,1,<rshift>,1,1,403377,381
Control_TS_7A,3,test,R,45,3,620,550,P,0,NONE,0,1,404377,950
Control_TS_7A,3,test,R,46,3,620,550,R,1,<rshift>,1,1,405377,588
Control_TS_7A,3,test,R,47,2,820,350,P,0,NONE,0,1,406377,950
Control_TS_7A,3,test,R,48,3,620,550,R,1,<rshift>,1,1,407377,334
Control_TS_7A,3,test,R,49,1,620,350,R,1,<rshift>,1,1,408377,440
Control_TS_7A,3,test,R,50,4,820,550,R,1,<rshift>,1,1,409377,430
Control_TS_7A,3,test,R,51,3,620,550,R,1,<rshift>,1,1,410377,406
Control_TS_7A,3,test,R,52,4,820,550,R,1,<rshift>,1,1,411377,515
Control_TS_7A,3,test,R,53,2,820,350,R,1,<rshift>,1,1,412377,531
Control_TS_7A,3,test,R,54,4,820,550,R,1,<rshift>,1,1,413377,469
Control_TS_7A,3,test,R,55,3,620,550,P,0,NONE,0,1,414378,950
Control_TS_7A,3,test,R,56,3,620,550,P,0,NONE,0,1,415377,950
Control_TS_7A,3,test,R,57,1,620,350,P,0,NONE,0,1,416377,950
Control_TS_7A,3,test,R,58,1,620,350,P,0,NONE,0,1,417377,950
Control_TS_7A,3,test,R,59,3,620,550,R,1,<rshift>,1,1,418377,466
Control_TS_7A,3,test,R,60,3,620,550,P,0,NONE,0,1,419377,950
Control_TS_7A,3,test,R,61,1,620,350,R,1,<rshift>,1,1,420377,413
Control_TS_7A,3,test,R,62,1,620,350,R,1,<rshift>,1,1,421378,541
Control_TS_7A,3,test,R,63,1,620,350,P,0,NONE,0,1,422377,950
Control_TS_7A,3,test,R,64,1,620,350,R,1,<rshift>,1,1,423377,372
Control_TS_7A,3,test,R,65,1,620,350,R,1,<rshift>,1,1,424377,471
Control_TS_7A,3,test,R,66,1,620,350,R,1,<rshift>,1,1,425377,314
Control_TS_7A,3,test,R,67,1,620,350,P,0,NONE,0,1,426377,950
Control_TS_7A,3,test,R,68,1,620,350,P,0,NONE,0,1,427377,950
Control_TS_7A,3,test,R,69,1,620,350,R,1,<rshift>,1,1,428378,497
Control_TS_7A,3,test,R,70,3,620,550,R,1,<rshift>,1,1,429377,532
Control_TS_7A,3,test,R,71,4,820,550,R,1,<rshift>,1,1,430377,499
Control_TS_7A,3,test,R,72,1,620,350,R,1,<rshift>,1,1,431377,469
Control_TS_7A,3,test,R,73,2,820,350,R,1,<rshift>,1,1,432377,401
Control_TS_7A,3,test,R,74,3,620,550,R,1,<rshift>,1,1,433377,435
Control_TS_7A,3,test,R,75,3,620,550,R,1,<rshift>,1,1,434377,411
Control_TS_7A,3,test,R,76,2,820,350,R,1,<rshift>,1,1,435377,442
Control_TS_7A,3,test,R,77,3,620,550,R,1,<rshift>,1,1,436377,393
Control_TS_7A,3,test,R,78,2,820,350,P,0,NONE,0,1,437377,950
Control_TS_7A,3,test,R,79,2,820,350,R,1,<rshift>,1,1,438377,560
Control_TS_7A,3,test,R,80,3,620,550,R,1,<rshift>,1,1,439377,399
Control_TS_7A,3,test,R,81,1,620,350,R,1,<rshift>,1,1,440377,362
Control_TS_7A,3,test,R,82,3,620,550,R,1,<rshift>,1,1,441377,362
Control_TS_7A,3,test,R,83,4,820,550,R,1,<rshift>,1,1,442377,353
Control_TS_7A,3,test,R,84,1,620,350,R,1,<rshift>,1,1,443377,352
Control_TS_7A,3,test,R,85,3,620,550,R,1,<rshift>,1,1,444378,359
Control_TS_7A,3,test,R,86,4,820,550,P,0,<rshift>,1,0,445378,380
Control_TS_7A,3,test,R,87,3,620,550,R,1,<rshift>,1,1,446377,362
Control_TS_7A,3,test,R,88,4,820,550,P,0,NONE,0,1,447377,951
Control_TS_7A,3,test,R,89,2,820,350,R,1,<rshift>,1,1,448377,389
Control_TS_7A,3,test,R,90,3,620,550,R,1,<rshift>,1,1,449377,448
Control_TS_7A,3,test,R,91,1,620,350,R,1,<rshift>,1,1,450377,415
Control_TS_7A,3,test,R,92,4,820,550,R,1,<rshift>,1,1,451377,427
Control_TS_7A,3,test,R,93,3,620,550,R,1,<rshift>,1,1,452377,522
Control_TS_7A,3,test,R,94,4,820,550,P,0,NONE,0,1,453377,950
Control_TS_7A,3,test,R,95,2,820,350,R,1,<rshift>,1,1,454377,339
Control_TS_7A,3,test,R,96,2,820,350,R,1,<rshift>,1,1,455377,430
Control_TS_7A,3,test,R,97,1,620,350,R,1,<rshift>,1,1,456377,415
Control_TS_7A,3,test,R,98,2,820,350,R,1,<rshift>,1,1,457377,386
Control_TS_7A,3,test,R,99,4,820,550,R,1,<rshift>,1,1,458377,409
Control_TS_7A,3,test,R,100,4,820,550,R,1,<rshift>,1,1,459377,405
Control_TS_7A,3,test,R,101,2,820,350,R,1,<rshift>,1,1,460377,385
Control_TS_7A,3,test,R,102,4,820,550,P,0,NONE,0,1,461378,950
Control_TS_7A,3,test,R,103,1,620,350,R,1,<rshift>,1,1,462377,360
Control_TS_7A,3,test,R,104,3,620,550,R,1,<rshift>,1,1,463377,349
Control_TS_7A,3,test,R,105,1,620,350,R,1,<rshift>,1,1,464377,359
Control_TS_7A,3,test,R,106,1,620,350,R,1,<rshift>,1,1,465378,392
Control_TS_7A,3,test,R,107,1,620,350,P,0,NONE,0,1,466377,950
Control_TS_7A,3,test,R,108,1,620,350,R,1,<rshift>,1,1,467377,413
Control_TS_7A,3,test,R,109,2,820,350,R,1,<rshift>,1,1,468377,445
Control_TS_7A,3,test,R,110,1,620,350,P,0,NONE,0,1,469377,950
Control_TS_7A,3,test,R,111,1,620,350,R,1,<rshift>,1,1,470377,452
Control_TS_7A,3,test,R,112,4,820,550,R,1,<rshift>,1,1,471377,432
Control_TS_7A,3,test,R,113,1,620,350,R,1,<rshift>,1,1,472377,417
Control_TS_7A,3,test,R,114,3,620,550,R,1,<rshift>,1,1,473377,367
Control_TS_7A,3,test,R,115,3,620,550,P,0,<rshift>,1,0,474377,379
Control_TS_7A,3,test,R,116,4,820,550,R,1,<rshift>,1,1,475377,353
Control_TS_7A,3,test,R,117,2,820,350,R,1,<rshift>,1,1,476377,369
Control_TS_7A,3,test,R,118,3,620,550,P,0,NONE,0,1,477377,950
Control_TS_7A,3,test,R,119,2,820,350,R,1,<rshift>,1,1,478377,436
Control_TS_7A,3,test,R,120,3,620,550,R,1,<rshift>,1,1,479377,414
Control_TS_7A,3,test,R,121,2,820,350,R,1,<rshift>,1,1,480378,360
Control_TS_7A,3,test,R,122,3,620,550,P,0,<rshift>,1,0,481377,360
Control_TS_7A,3,test,R,123,1,620,350,R,1,<rshift>,1,1,482377,329
Control_TS_7A,3,test,R,124,4,820,550,R,1,<rshift>,1,1,483377,377
Control_TS_7A,3,test,R,125,2,820,350,R,1,<rshift>,1,1,484378,364
Control_TS_7A,3,test,R,126,4,820,550,R,1,<rshift>,1,1,485378,422
Control_TS_7A,3,test,R,127,3,620,550,R,1,<rshift>,1,1,486377,436
Control_TS_7A,3,test,R,128,4,820,550,R,1,<rshift>,1,1,487378,419
Control_TS_7A,3,test,R,129,2,820,350,R,1,<rshift>,1,1,488377,491
Control_TS_7A,3,test,R,130,1,620,350,R,1,<rshift>,1,1,489377,365
Control_TS_7A,3,test,R,131,4,820,550,R,1,<rshift>,1,1,490377,400
Control_TS_7A,3,test,R,132,1,620,350,R,1,<rshift>,1,1,491377,351
Control_TS_7A,3,test,R,133,1,620,350,R,1,<rshift>,1,1,492377,367
Control_TS_7A,3,test,R,134,3,620,550,P,0,<rshift>,1,0,493377,387
Control_TS_7A,3,test,R,135,4,820,550,R,1,<rshift>,1,1,494377,359
Control_TS_7A,3,test,R,136,4,820,550,R,1,<rshift>,1,1,495377,465
Control_TS_7A,3,test,R,137,1,620,350,P,0,NONE,0,1,496378,950
Control_TS_7A,3,test,R,138,2,820,350,R,1,<rshift>,1,1,497377,417
Control_TS_7A,3,test,R,139,3,620,550,R,1,<rshift>,1,1,498377,446
Control_TS_7A,3,test,R,140,4,820,550,R,1,<rshift>,1,1,499377,360
Control_TS_7A,3,test,R,141,1,620,350,P,0,NONE,0,1,500377,950
Control_TS_7A,3,test,R,142,4,820,550,R,1,<rshift>,1,1,501377,393
Control_TS_7A,3,test,R,143,2,820,350,R,1,<rshift>,1,1,502377,412
Control_TS_7A,3,test,R,144,1,620,350,R,1,<rshift>,1,1,503377,353
Control_TS_7A,3,test,R,145,1,620,350,R,1,<rshift>,1,1,504377,403
Control_TS_7A,3,test,R,146,2,820,350,P,0,NONE,0,1,505377,950
Control_TS_7A,3,test,R,147,3,620,550,R,1,<rshift>,1,1,506377,382
Control_TS_7A,3,test,R,148,2,820,350,R,1,<rshift>,1,1,507377,428
Control_TS_7A,3,test,R,149,3,620,550,R,1,<rshift>,1,1,508377,383
Control_TS_7A,3,test,R,150,1,620,350,R,1,<rshift>,1,1,509377,392
Control_TS_7A,3,test,R,151,3,620,550,P,0,NONE,0,1,510377,950
Control_TS_7A,3,test,R,152,4,820,550,R,1,<rshift>,1,1,511377,376
Control_TS_7A,3,test,R,153,4,820,550,R,1,<rshift>,1,1,512377,396
Control_TS_7A,3,test,R,154,1,620,350,R,1,<rshift>,1,1,513377,386
Control_TS_7A,3,test,R,155,2,820,350,R,1,<rshift>,1,1,514378,333
Control_TS_7A,3,test,R,156,2,820,350,R,1,<rshift>,1,1,515377,378
Control_TS_7A,3,test,R,157,1,620,350,R,1,<rshift>,1,1,516377,411
Control_TS_7A,3,test,R,158,3,620,550,R,1,<rshift>,1,1,517377,413
Control_TS_7A,3,test,R,159,2,820,350,R,1,<rshift>,1,1,518377,336
Control_TS_7A,3,test,R,160,4,820,550,P,0,<rshift>,1,0,519377,331
Control_TS_7A,3,test,R,161,1,620,350,R,1,<rshift>,1,1,520377,330
Control_TS_7A,3,test,R,162,1,620,350,R,1,<rshift>,1,1,521378,377
Control_TS_7A,3,test,R,163,4,820,550,R,1,<rshift>,1,1,522377,471
Control_TS_7A,3,test,R,164,2,820,350,R,1,<rshift>,1,1,523377,425
Control_TS_7A,3,test,R,165,1,620,350,R,1,<rshift>,1,1,524377,365
Control_TS_7A,3,test,R,166,1,620,350,R,1,<rshift>,1,1,525378,431
Control_TS_7A,3,test,R,167,3,620,550,R,1,<rshift>,1,1,526378,465
Control_TS_7A,3,test,R,168,3,620,550,R,1,<rshift>,1,1,527377,470
Control_TS_7A,3,test,R,169,4,820,550,R,1,<rshift>,1,1,528377,483
Control_TS_7A,3,test,R,170,1,620,350,R,1,<rshift>,1,1,529377,478
Control_TS_7A,3,test,R,171,4,820,550,R,1,<rshift>,1,1,530378,366
Control_TS_7A,3,test,R,172,2,820,350,R,1,<rshift>,1,1,531377,415
Control_TS_7A,3,test,R,173,2,820,350,R,1,<rshift>,1,1,532377,390
Control_TS_7A,3,test,R,174,3,620,550,R,1,<rshift>,1,1,533377,460
Control_TS_7A,3,test,R,175,3,620,550,R,1,<rshift>,1,1,534377,457
Control_TS_7A,3,test,R,176,2,820,350,R,1,<rshift>,1,1,535378,367
Control_TS_7A,3,test,R,177,3,620,550,R,1,<rshift>,1,1,536378,379
Control_TS_7A,3,test,R,178,3,620,550,R,1,<rshift>,1,1,537377,497
Control_TS_7A,3,test,R,179,1,620,350,R,1,<rshift>,1,1,538378,528
Control_TS_7A,3,test,R,180,4,820,550,R,1,<rshift>,1,1,539377,455
Control_TS_7A,3,test,R,181,3,620,550,R,1,<rshift>,1,1,540377,432
Control_TS_7A,3,test,R,182,4,820,550,P,0,NONE,0,1,541378,950
Control_TS_7A,3,test,R,183,4,820,550,P,0,NONE,0,1,542377,951
Control_TS_7A,3,test,R,184,2,820,350,R,1,<rshift>,1,1,543377,527
Control_TS_7A,3,test,R,185,2,820,350,R,1,<rshift>,1,1,544377,499
Control_TS_7A,3,test,R,186,3,620,550,R,1,<rshift>,1,1,545378,457
Control_TS_7A,3,test,R,187,2,820,350,R,1,<rshift>,1,1,546378,399
Control_TS_7A,3,test,R,188,2,820,350,R,1,<rshift>,1,1,547378,405
Control_TS_7A,3,test,R,189,3,620,550,R,1,<rshift>,1,1,548377,478
Control_TS_7A,3,test,R,190,3,620,550,R,1,<rshift>,1,1,549377,462
Control_TS_7A,3,test,R,191,2,820,350,R,1,<rshift>,1,1,550377,404
Control_TS_7A,3,test,R,192,4,820,550,R,1,<rshift>,1,1,551378,451
Control_TS_7A,3,test,R,193,3,620,550,P,0,<rshift>,1,0,552377,377
Control_TS_7A,3,test,R,194,4,820,550,R,1,<rshift>,1,1,553378,325
Control_TS_7A,3,test,R,195,1,620,350,R,1,<rshift>,1,1,554378,515
Control_TS_7A,3,test,R,196,1,620,350,R,1,<rshift>,1,1,555377,398
Control_TS_7A,3,test,R,197,4,820,550,R,1,<rshift>,1,1,556377,496
Control_TS_7A,3,test,R,198,4,820,550,R,1,<rshift>,1,1,557377,397
Control_TS_7A,3,test,R,199,1,620,350,P,0,NONE,0,1,558377,950
Control_TS_7A,3,test,R,200,3,620,550,R,1,<rshift>,1,1,559377,475
Control_TS_7A,3,test,R,201,1,620,350,P,0,NONE,0,1,560377,950
Control_TS_7A,3,test,R,202,4,820,550,R,1,<rshift>,1,1,561377,439
Control_TS_7A,3,test,R,203,1,620,350,P,0,NONE,0,1,562377,951
Control_TS_7A,3,test,R,204,1,620,350,P,0,NONE,0,1,563377,950
Control_TS_7A,3,test,R,205,2,820,350,R,1,<rshift>,1,1,564377,454
Control_TS_7A,3,test,R,206,4,820,550,R,1,<rshift>,1,1,565377,559
Control_TS_7A,3,test,R,207,4,820,550,R,1,<rshift>,1,1,566377,448
Control_TS_7A,3,test,R,208,1,620,350,R,1,<rshift>,1,1,567377,415
Control_TS_7A,3,test,R,209,1,620,350,R,1,<rshift>,1,1,568377,458
Control_TS_7A,3,test,R,210,1,620,350,R,1,<rshift>,1,1,569378,442
Control_TS_7A,3,test,R,211,4,820,550,R,1,<rshift>,1,1,570377,381
Control_TS_7A,3,test,R,212,1,620,350,R,1,<rshift>,1,1,571377,495
Control_TS_7A,3,test,R,213,2,820,350,R,1,<rshift>,1,1,572377,487
Control_TS_7A,3,test,R,214,1,620,350,R,1,<rshift>,1,1,573377,461
Control_TS_7A,3,test,R,215,2,820,350,R,1,<rshift>,1,1,574377,389
Control_TS_7A,3,test,R,216,4,820,550,R,1,<rshift>,1,1,575377,437
Control_TS_7A,3,test,R,217,1,620,350,P,0,<rshift>,1,0,576377,380
Control_TS_7A,3,test,R,218,3,620,550,R,1,<rshift>,1,1,577378,326
Control_TS_7A,3,test,R,219,3,620,550,P,0,<rshift>,1,0,578377,457
Control_TS_7A,3,test,R,220,1,620,350,P,0,NONE,0,1,579377,950
Control_TS_7A,3,test,R,221,4,820,550,R,1,<rshift>,1,1,580377,378
Control_TS_7A,3,test,R,222,4,820,550,R,1,<rshift>,1,1,581378,401
Control_TS_7A,3,test,R,223,4,820,550,R,1,<rshift>,1,1,582377,342
Control_TS_7A,3,test,R,224,2,820,350,R,1,<rshift>,1,1,583377,416
Control_TS_7A,3,test,R,225,1,620,350,R,1,<rshift>,1,1,584378,409
Control_TS_7A,3,test,R,226,4,820,550,P,0,<rshift>,1,0,585377,372
Control_TS_7A,3,test,R,227,4,820,550,R,1,<rshift>,1,1,586377,531
Control_TS_7A,3,test,R,228,1,620,350,R,1,<rshift>,1,1,587377,580
Control_TS_7A,3,test,R,229,1,620,350,R,1,<rshift>,1,1,588378,602
Control_TS_7A,3,test,R,230,4,820,550,R,1,<rshift>,1,1,589377,415
Control_TS_7A,3,test,R,231,2,820,350,R,1,<rshift>,1,1,590377,465
Control_TS_7A,3,test,R,232,3,620,550,P,0,NONE,0,1,591377,950
Control_TS_7A,3,test,R,233,3,620,550,R,1,<rshift>,1,1,592377,577
Control_TS_7A,3,test,R,234,4,820,550,R,1,<rshift>,1,1,593377,584
Control_TS_7A,3,test,R,235,4,820,550,P,0,NONE,0,1,594377,950
Control_TS_7A,3,test,R,236,1,620,350,R,1,<rshift>,1,1,595377,376
Control_TS_7A,3,test,R,237,4,820,550,R,1,<rshift>,1,1,596377,493
Control_TS_7A,3,test,R,238,3,620,550,R,1,<rshift>,1,1,597378,410
Control_TS_7A,3,test,R,239,4,820,550,R,1,<rshift>,1,1,598378,382
Control_TS_7A,3,test,R,240,4,820,550,P,0,<rshift>,1,0,599377,428
Control_TS_7A,3,test,R,241,3,620,550,R,1,<rshift>,1,1,600377,334
Control_TS_7A,3,test,R,242,4,820,550,R,1,<rshift>,1,1,601377,375
Control_TS_7A,3,test,R,243,4,820,550,R,1,<rshift>,1,1,602377,386
Control_TS_7A,3,test,R,244,3,620,550,P,0,NONE,0,1,603378,950
Control_TS_7A,3,test,R,245,1,620,350,P,0,NONE,0,1,604377,950
Control_TS_7A,3,test,R,246,4,820,550,R,1,<rshift>,1,1,605379,463
Control_TS_7A,3,test,R,247,2,820,350,R,1,<rshift>,1,1,606378,515
Control_TS_7A,3,test,R,248,1,620,350,R,1,<rshift>,1,1,607377,395
Control_TS_7A,3,test,R,249,1,620,350,R,1,<rshift>,1,1,608378,477
Control_TS_7A,3,test,R,250,1,620,350,R,1,<rshift>,1,1,609377,442
Control_TS_7A,3,test,R,251,4,820,550,R,1,<rshift>,1,1,610377,563
Control_TS_7A,3,test,R,252,4,820,550,P,0,NONE,0,1,611377,950
Control_TS_7A,3,test,R,253,2,820,350,R,1,<rshift>,1,1,612377,426
Control_TS_7A,3,test,R,254,2,820,350,R,1,<rshift>,1,1,613377,750
Control_TS_7A,3,test,R,255,4,820,550,P,0,NONE,0,1,614377,950
Control_TS_7A,3,test,R,256,1,620,350,P,0,<rshift>,1,0,615377,382
Control_TS_7A,3,test,R,257,1,620,350,R,1,<rshift>,1,1,616377,557
Control_TS_7A,3,test,R,258,4,820,550,R,1,<rshift>,1,1,617377,544
Control_TS_7A,3,test,R,259,2,820,350,R,1,<rshift>,1,1,618377,491
Control_TS_7A,3,test,R,260,4,820,550,R,1,<rshift>,1,1,619377,462
Control_TS_7A,3,test,R,261,2,820,350,R,1,<rshift>,1,1,620377,468
Control_TS_7A,3,test,R,262,1,620,350,R,1,<rshift>,1,1,621377,532
Control_TS_7A,3,test,R,263,4,820,550,R,1,<rshift>,1,1,622378,460
Control_TS_7A,3,test,R,264,4,820,550,R,1,<rshift>,1,1,623377,433
Control_TS_7A,3,test,R,265,4,820,550,R,1,<rshift>,1,1,624377,415
Control_TS_7A,3,test,R,266,2,820,350,R,1,<rshift>,1,1,625377,548
Control_TS_7A,3,test,R,267,4,820,550,R,1,<rshift>,1,1,626377,432
Control_TS_7A,3,test,R,268,4,820,550,R,1,<rshift>,1,1,627377,426
Control_TS_7A,3,test,R,269,3,620,550,R,1,<rshift>,1,1,628377,408
Control_TS_7A,3,test,R,270,1,620,350,P,0,<rshift>,1,0,629377,380
Control_TS_7A,3,test,R,271,3,620,550,P,0,<rshift>,1,0,630377,329
Control_TS_7A,3,test,R,272,2,820,350,R,1,<rshift>,1,1,631377,479
Control_TS_7A,3,test,R,273,3,620,550,R,1,<rshift>,1,1,632377,370
Control_TS_7A,3,test,R,274,1,620,350,R,1,<rshift>,1,1,633377,358
Control_TS_7A,3,test,R,275,1,620,350,R,1,<rshift>,1,1,634377,357
Control_TS_7A,3,test,R,276,2,820,350,R,1,<rshift>,1,1,635377,331
Control_TS_7A,3,test,R,277,1,620,350,R,1,<rshift>,1,1,636377,348
Control_TS_7A,3,test,R,278,1,620,350,R,1,<rshift>,1,1,637377,372
Control_TS_7A,3,test,R,279,3,620,550,P,0,<rshift>,1,0,638377,347
Control_TS_7A,3,test,R,280,3,620,550,R,1,<rshift>,1,1,639377,336
Control_TS_7A,3,test,R,281,4,820,550,R,1,<rshift>,1,1,640378,365
Control_TS_7A,3,test,R,282,4,820,550,R,1,<rshift>,1,1,641378,346
Control_TS_7A,3,test,R,283,1,620,350,R,1,<rshift>,1,1,642377,377
Control_TS_7A,3,test,R,284,3,620,550,R,1,<rshift>,1,1,643378,406
Control_TS_7A,3,test,R,285,1,620,350,R,1,<rshift>,1,1,644377,443
Control_TS_7A,3,test,R,286,4,820,550,R,1,<rshift>,1,1,645378,319
Control_TS_7A,3,test,R,287,4,820,550,R,1,<rshift>,1,1,646378,537
Control_TS_7A,3,test,R,288,4,820,550,R,1,<rshift>,1,1,647377,332
Control_TS_7A,3,test,R,289,1,620,350,R,1,<rshift>,1,1,648378,342
Control_TS_7A,3,test,R,290,4,820,550,R,1,<rshift>,1,1,649377,300
Control_TS_7A,3,test,R,291,2,820,350,R,1,<rshift>,1,1,650377,309
Control_TS_7A,3,test,R,292,2,820,350,R,1,<rshift>,1,1,651377,427
Control_TS_7A,3,test,R,293,4,820,550,R,1,<rshift>,1,1,652377,471
Control_TS_7A,3,test,R,294,4,820,550,P,0,NONE,0,1,653377,950
Control_TS_7A,3,test,R,295,1,620,350,R,1,<rshift>,1,1,654377,578
Control_TS_7A,3,test,R,296,2,820,350,R,1,<rshift>,1,1,655377,449
Control_TS_7A,3,test,R,297,2,820,350,R,1,<rshift>,1,1,656378,378
Control_TS_7A,3,test,R,298,4,820,550,R,1,<rshift>,1,1,657377,459
Control_TS_7A,3,test,R,299,1,620,350,R,1,<rshift>,1,1,658377,515
Control_TS_7A,3,test,R,300,3,620,550,P,0,NONE,0,1,659377,950
