subnum,block,type,correctresponse,trial,choice,x,y,stim,present,response,responded,corr,starttime,rt
Anodal_TS_24_A,0,practice,P,1,1,620,350,P,1,<rshift>,1,1,10698,387
Anodal_TS_24_A,0,practice,P,2,4,820,550,P,1,<rshift>,1,1,11697,447
Anodal_TS_24_A,0,practice,P,3,2,820,350,P,1,<rshift>,1,1,12698,374
Anodal_TS_24_A,0,practice,P,4,1,620,350,P,1,<rshift>,1,1,13699,348
Anodal_TS_24_A,0,practice,P,5,3,620,550,P,1,<rshift>,1,1,14697,308
Anodal_TS_24_A,0,practice,P,6,3,620,550,P,1,<rshift>,1,1,15697,306
Anodal_TS_24_A,0,practice,P,7,4,820,550,R,0,<rshift>,1,0,16697,290
Anodal_TS_24_A,0,practice,P,8,3,620,550,P,1,<rshift>,1,1,18006,554
Anodal_TS_24_A,0,practice,P,9,1,620,350,P,1,<rshift>,1,1,18699,465
Anodal_TS_24_A,0,practice,P,10,4,820,550,R,0,NONE,0,1,19697,950
Anodal_TS_24_A,1,test,P,1,1,620,350,P,1,<rshift>,1,1,27250,483
Anodal_TS_24_A,1,test,P,2,4,820,550,P,1,<rshift>,1,1,28251,343
Anodal_TS_24_A,1,test,P,3,2,820,350,P,1,<rshift>,1,1,29249,302
Anodal_TS_24_A,1,test,P,4,4,820,550,R,0,<rshift>,1,0,30250,276
Anodal_TS_24_A,1,test,P,5,4,820,550,P,1,<rshift>,1,1,31251,323
Anodal_TS_24_A,1,test,P,6,2,820,350,P,1,<rshift>,1,1,32249,316
Anodal_TS_24_A,1,test,P,7,1,620,350,P,1,<rshift>,1,1,33250,373
Anodal_TS_24_A,1,test,P,8,4,820,550,R,0,<rshift>,1,0,34249,335
Anodal_TS_24_A,1,test,P,9,1,620,350,R,0,<rshift>,1,0,35249,313
Anodal_TS_24_A,1,test,P,10,3,620,550,P,1,<rshift>,1,1,36251,340
Anodal_TS_24_A,1,test,P,11,4,820,550,P,1,<rshift>,1,1,37249,382
Anodal_TS_24_A,1,test,P,12,1,620,350,P,1,<rshift>,1,1,38249,448
Anodal_TS_24_A,1,test,P,13,2,820,350,P,1,<rshift>,1,1,39249,384
Anodal_TS_24_A,1,test,P,14,4,820,550,P,1,<rshift>,1,1,40250,443
Anodal_TS_24_A,1,test,P,15,2,820,350,P,1,<rshift>,1,1,41249,394
Anodal_TS_24_A,1,test,P,16,1,620,350,R,0,NONE,0,1,42250,950
Anodal_TS_24_A,1,test,P,17,1,620,350,P,1,<rshift>,1,1,43249,514
Anodal_TS_24_A,1,test,P,18,2,820,350,P,1,<rshift>,1,1,44249,478
Anodal_TS_24_A,1,test,P,19,1,620,350,R,0,NONE,0,1,45249,950
Anodal_TS_24_A,1,test,P,20,1,620,350,P,1,<rshift>,1,1,46251,509
Anodal_TS_24_A,1,test,P,21,1,620,350,P,1,<rshift>,1,1,47249,345
Anodal_TS_24_A,1,test,P,22,3,620,550,P,1,<rshift>,1,1,48251,341
Anodal_TS_24_A,1,test,P,23,1,620,350,P,1,<rshift>,1,1,49251,414
Anodal_TS_24_A,1,test,P,24,1,620,350,P,1,<rshift>,1,1,50250,399
Anodal_TS_24_A,1,test,P,25,4,820,550,P,1,<rshift>,1,1,51249,447
Anodal_TS_24_A,1,test,P,26,3,620,550,P,1,<rshift>,1,1,52249,412
Anodal_TS_24_A,1,test,P,27,4,820,550,R,0,NONE,0,1,53249,950
Anodal_TS_24_A,1,test,P,28,1,620,350,P,1,<rshift>,1,1,54249,495
Anodal_TS_24_A,1,test,P,29,3,620,550,R,0,NONE,0,1,55249,950
Anodal_TS_24_A,1,test,P,30,1,620,350,P,1,<rshift>,1,1,56249,413
Anodal_TS_24_A,1,test,P,31,4,820,550,P,1,<rshift>,1,1,57249,476
Anodal_TS_24_A,1,test,P,32,3,620,550,P,1,<rshift>,1,1,58250,433
Anodal_TS_24_A,1,test,P,33,4,820,550,P,1,<rshift>,1,1,59251,379
Anodal_TS_24_A,1,test,P,34,4,820,550,P,1,<rshift>,1,1,60249,361
Anodal_TS_24_A,1,test,P,35,4,820,550,R,0,NONE,0,1,61249,950
Anodal_TS_24_A,1,test,P,36,2,820,350,R,0,NONE,0,1,62249,950
Anodal_TS_24_A,1,test,P,37,1,620,350,R,0,NONE,0,1,63250,950
Anodal_TS_24_A,1,test,P,38,1,620,350,R,0,<rshift>,1,0,64249,522
Anodal_TS_24_A,1,test,P,39,2,820,350,P,1,<rshift>,1,1,65249,497
Anodal_TS_24_A,1,test,P,40,2,820,350,P,1,<rshift>,1,1,66249,388
Anodal_TS_24_A,1,test,P,41,4,820,550,R,0,<rshift>,1,0,67249,355
Anodal_TS_24_A,1,test,P,42,1,620,350,P,1,<rshift>,1,1,68251,565
Anodal_TS_24_A,1,test,P,43,1,620,350,R,0,<rshift>,1,0,69249,439
Anodal_TS_24_A,1,test,P,44,4,820,550,P,1,<rshift>,1,1,70250,407
Anodal_TS_24_A,1,test,P,45,3,620,550,P,1,<rshift>,1,1,71249,469
Anodal_TS_24_A,1,test,P,46,2,820,350,P,1,<rshift>,1,1,72250,402
Anodal_TS_24_A,1,test,P,47,2,820,350,P,1,<rshift>,1,1,73249,453
Anodal_TS_24_A,1,test,P,48,2,820,350,P,1,<rshift>,1,1,74251,550
Anodal_TS_24_A,1,test,P,49,3,620,550,P,1,<rshift>,1,1,75250,499
Anodal_TS_24_A,1,test,P,50,2,820,350,P,1,<rshift>,1,1,76249,466
Anodal_TS_24_A,1,test,P,51,3,620,550,P,1,<rshift>,1,1,77250,503
Anodal_TS_24_A,1,test,P,52,3,620,550,P,1,<rshift>,1,1,78249,436
Anodal_TS_24_A,1,test,P,53,3,620,550,P,1,<rshift>,1,1,79249,453
Anodal_TS_24_A,1,test,P,54,2,820,350,P,1,<rshift>,1,1,80249,470
Anodal_TS_24_A,1,test,P,55,1,620,350,P,1,<rshift>,1,1,81250,400
Anodal_TS_24_A,1,test,P,56,4,820,550,P,1,<rshift>,1,1,82249,387
Anodal_TS_24_A,1,test,P,57,1,620,350,P,1,<rshift>,1,1,83251,367
Anodal_TS_24_A,1,test,P,58,3,620,550,P,1,<rshift>,1,1,84250,386
Anodal_TS_24_A,1,test,P,59,1,620,350,P,1,<rshift>,1,1,85250,365
Anodal_TS_24_A,1,test,P,60,2,820,350,P,1,<rshift>,1,1,86251,398
Anodal_TS_24_A,1,test,P,61,2,820,350,P,1,<rshift>,1,1,87249,359
Anodal_TS_24_A,1,test,P,62,4,820,550,R,0,<rshift>,1,0,88249,338
Anodal_TS_24_A,1,test,P,63,4,820,550,R,0,NONE,0,1,89249,950
Anodal_TS_24_A,1,test,P,64,2,820,350,R,0,NONE,0,1,90249,950
Anodal_TS_24_A,1,test,P,65,2,820,350,P,1,<rshift>,1,1,91249,492
Anodal_TS_24_A,1,test,P,66,4,820,550,R,0,NONE,0,1,92249,950
Anodal_TS_24_A,1,test,P,67,1,620,350,P,1,<rshift>,1,1,93249,510
Anodal_TS_24_A,1,test,P,68,4,820,550,P,1,<rshift>,1,1,94251,392
Anodal_TS_24_A,1,test,P,69,3,620,550,P,1,<rshift>,1,1,95250,401
Anodal_TS_24_A,1,test,P,70,1,620,350,R,0,<rshift>,1,0,96249,358
Anodal_TS_24_A,1,test,P,71,4,820,550,P,1,<rshift>,1,1,97251,510
Anodal_TS_24_A,1,test,P,72,4,820,550,P,1,<rshift>,1,1,98249,405
Anodal_TS_24_A,1,test,P,73,3,620,550,P,1,<rshift>,1,1,99251,373
Anodal_TS_24_A,1,test,P,74,2,820,350,P,1,<rshift>,1,1,100249,362
Anodal_TS_24_A,1,test,P,75,4,820,550,P,1,<rshift>,1,1,101251,375
Anodal_TS_24_A,1,test,P,76,4,820,550,P,1,<rshift>,1,1,102249,495
Anodal_TS_24_A,1,test,P,77,4,820,550,P,1,<rshift>,1,1,103251,406
Anodal_TS_24_A,1,test,P,78,4,820,550,R,0,NONE,0,1,104249,950
Anodal_TS_24_A,1,test,P,79,2,820,350,P,1,<rshift>,1,1,105249,506
Anodal_TS_24_A,1,test,P,80,3,620,550,P,1,<rshift>,1,1,106251,469
Anodal_TS_24_A,1,test,P,81,1,620,350,P,1,<rshift>,1,1,107251,432
Anodal_TS_24_A,1,test,P,82,1,620,350,R,0,NONE,0,1,108249,950
Anodal_TS_24_A,1,test,P,83,2,820,350,P,1,<rshift>,1,1,109251,442
Anodal_TS_24_A,1,test,P,84,2,820,350,P,1,<rshift>,1,1,110250,456
Anodal_TS_24_A,1,test,P,85,3,620,550,R,0,NONE,0,1,111249,950
Anodal_TS_24_A,1,test,P,86,4,820,550,P,1,<rshift>,1,1,112251,484
Anodal_TS_24_A,1,test,P,87,1,620,350,P,1,<rshift>,1,1,113251,542
Anodal_TS_24_A,1,test,P,88,1,620,350,P,1,<rshift>,1,1,114250,475
Anodal_TS_24_A,1,test,P,89,1,620,350,P,1,<rshift>,1,1,115249,382
Anodal_TS_24_A,1,test,P,90,4,820,550,P,1,<rshift>,1,1,116249,365
Anodal_TS_24_A,1,test,P,91,1,620,350,P,1,<rshift>,1,1,117249,395
Anodal_TS_24_A,1,test,P,92,4,820,550,P,1,<rshift>,1,1,118251,370
Anodal_TS_24_A,1,test,P,93,4,820,550,P,1,<rshift>,1,1,119249,548
Anodal_TS_24_A,1,test,P,94,1,620,350,P,1,<rshift>,1,1,120249,424
Anodal_TS_24_A,1,test,P,95,1,620,350,P,1,<rshift>,1,1,121249,353
Anodal_TS_24_A,1,test,P,96,4,820,550,P,1,<rshift>,1,1,122251,334
Anodal_TS_24_A,1,test,P,97,3,620,550,P,1,<rshift>,1,1,123249,530
Anodal_TS_24_A,1,test,P,98,4,820,550,P,1,<rshift>,1,1,124249,367
Anodal_TS_24_A,1,test,P,99,3,620,550,R,0,<rshift>,1,0,125250,355
Anodal_TS_24_A,1,test,P,100,4,820,550,P,1,<rshift>,1,1,126249,451
Anodal_TS_24_A,1,test,P,101,2,820,350,P,1,<rshift>,1,1,127249,494
Anodal_TS_24_A,1,test,P,102,3,620,550,P,1,<rshift>,1,1,128251,392
Anodal_TS_24_A,1,test,P,103,2,820,350,P,1,<rshift>,1,1,129249,366
Anodal_TS_24_A,1,test,P,104,3,620,550,P,1,<rshift>,1,1,130250,363
Anodal_TS_24_A,1,test,P,105,1,620,350,P,1,<rshift>,1,1,131251,355
Anodal_TS_24_A,1,test,P,106,1,620,350,P,1,<rshift>,1,1,132251,374
Anodal_TS_24_A,1,test,P,107,2,820,350,P,1,<rshift>,1,1,133249,349
Anodal_TS_24_A,1,test,P,108,2,820,350,R,0,<rshift>,1,0,134249,401
Anodal_TS_24_A,1,test,P,109,3,620,550,P,1,<rshift>,1,1,135249,469
Anodal_TS_24_A,1,test,P,110,1,620,350,P,1,<rshift>,1,1,136249,407
Anodal_TS_24_A,1,test,P,111,3,620,550,P,1,<rshift>,1,1,137251,553
Anodal_TS_24_A,1,test,P,112,2,820,350,P,1,<rshift>,1,1,138249,436
Anodal_TS_24_A,1,test,P,113,1,620,350,P,1,<rshift>,1,1,139249,407
Anodal_TS_24_A,1,test,P,114,2,820,350,P,1,<rshift>,1,1,140249,354
Anodal_TS_24_A,1,test,P,115,4,820,550,P,1,<rshift>,1,1,141249,442
Anodal_TS_24_A,1,test,P,116,4,820,550,P,1,<rshift>,1,1,142249,405
Anodal_TS_24_A,1,test,P,117,1,620,350,P,1,<rshift>,1,1,143249,390
Anodal_TS_24_A,1,test,P,118,3,620,550,P,1,<rshift>,1,1,144249,590
Anodal_TS_24_A,1,test,P,119,4,820,550,P,1,<rshift>,1,1,145249,397
Anodal_TS_24_A,1,test,P,120,4,820,550,P,1,<rshift>,1,1,146249,437
Anodal_TS_24_A,1,test,P,121,1,620,350,P,1,<rshift>,1,1,147250,497
Anodal_TS_24_A,1,test,P,122,4,820,550,P,1,<rshift>,1,1,148251,457
Anodal_TS_24_A,1,test,P,123,1,620,350,P,1,<rshift>,1,1,149249,514
Anodal_TS_24_A,1,test,P,124,4,820,550,P,1,<rshift>,1,1,150249,402
Anodal_TS_24_A,1,test,P,125,1,620,350,P,1,<rshift>,1,1,151251,411
Anodal_TS_24_A,1,test,P,126,1,620,350,P,1,<rshift>,1,1,152249,348
Anodal_TS_24_A,1,test,P,127,2,820,350,P,1,<rshift>,1,1,153251,436
Anodal_TS_24_A,1,test,P,128,3,620,550,P,1,<rshift>,1,1,154249,364
Anodal_TS_24_A,1,test,P,129,3,620,550,P,1,<rshift>,1,1,155250,370
Anodal_TS_24_A,1,test,P,130,1,620,350,P,1,<rshift>,1,1,156249,455
Anodal_TS_24_A,1,test,P,131,2,820,350,P,1,<rshift>,1,1,157251,377
Anodal_TS_24_A,1,test,P,132,4,820,550,R,0,<rshift>,1,0,158251,399
Anodal_TS_24_A,1,test,P,133,4,820,550,R,0,NONE,0,1,159250,950
Anodal_TS_24_A,1,test,P,134,4,820,550,P,1,<rshift>,1,1,160250,467
Anodal_TS_24_A,1,test,P,135,1,620,350,R,0,NONE,0,1,161250,950
Anodal_TS_24_A,1,test,P,136,4,820,550,P,1,<rshift>,1,1,162249,525
Anodal_TS_24_A,1,test,P,137,4,820,550,R,0,NONE,0,1,163249,950
Anodal_TS_24_A,1,test,P,138,1,620,350,R,0,<rshift>,1,0,164249,551
Anodal_TS_24_A,1,test,P,139,4,820,550,R,0,NONE,0,1,165250,950
Anodal_TS_24_A,1,test,P,140,3,620,550,P,1,<rshift>,1,1,166249,477
Anodal_TS_24_A,1,test,P,141,3,620,550,P,1,<rshift>,1,1,167251,413
Anodal_TS_24_A,1,test,P,142,4,820,550,R,0,<rshift>,1,0,168249,398
Anodal_TS_24_A,1,test,P,143,1,620,350,P,1,<rshift>,1,1,169249,456
Anodal_TS_24_A,1,test,P,144,2,820,350,P,1,<rshift>,1,1,170250,665
Anodal_TS_24_A,1,test,P,145,2,820,350,P,1,<rshift>,1,1,171251,664
Anodal_TS_24_A,1,test,P,146,2,820,350,P,1,<rshift>,1,1,172251,473
Anodal_TS_24_A,1,test,P,147,1,620,350,P,1,<rshift>,1,1,173251,533
Anodal_TS_24_A,1,test,P,148,4,820,550,P,1,<rshift>,1,1,174249,485
Anodal_TS_24_A,1,test,P,149,2,820,350,P,1,<rshift>,1,1,175249,600
Anodal_TS_24_A,1,test,P,150,4,820,550,P,1,<rshift>,1,1,176251,413
Anodal_TS_24_A,1,test,P,151,3,620,550,R,0,NONE,0,1,177249,950
Anodal_TS_24_A,1,test,P,152,3,620,550,P,1,<rshift>,1,1,178249,530
Anodal_TS_24_A,1,test,P,153,2,820,350,P,1,<rshift>,1,1,179249,617
Anodal_TS_24_A,1,test,P,154,2,820,350,R,0,NONE,0,1,180250,950
Anodal_TS_24_A,1,test,P,155,2,820,350,P,1,NONE,0,0,181249,950
Anodal_TS_24_A,1,test,P,156,1,620,350,P,1,<rshift>,1,1,182249,512
Anodal_TS_24_A,1,test,P,157,1,620,350,P,1,<rshift>,1,1,183249,328
Anodal_TS_24_A,1,test,P,158,4,820,550,P,1,<rshift>,1,1,184249,325
Anodal_TS_24_A,1,test,P,159,3,620,550,R,0,NONE,0,1,185249,950
Anodal_TS_24_A,1,test,P,160,1,620,350,P,1,<rshift>,1,1,186249,407
Anodal_TS_24_A,1,test,P,161,3,620,550,P,1,<rshift>,1,1,187249,540
Anodal_TS_24_A,1,test,P,162,2,820,350,P,1,<rshift>,1,1,188249,516
Anodal_TS_24_A,1,test,P,163,1,620,350,P,1,<rshift>,1,1,189250,398
Anodal_TS_24_A,1,test,P,164,3,620,550,P,1,<rshift>,1,1,190250,327
Anodal_TS_24_A,1,test,P,165,2,820,350,P,1,<rshift>,1,1,191249,386
Anodal_TS_24_A,1,test,P,166,3,620,550,P,1,<rshift>,1,1,192251,383
Anodal_TS_24_A,1,test,P,167,4,820,550,P,1,<rshift>,1,1,193249,411
Anodal_TS_24_A,1,test,P,168,3,620,550,P,1,<rshift>,1,1,194251,400
Anodal_TS_24_A,1,test,P,169,3,620,550,P,1,<rshift>,1,1,195249,397
Anodal_TS_24_A,1,test,P,170,4,820,550,P,1,<rshift>,1,1,196249,371
Anodal_TS_24_A,1,test,P,171,3,620,550,P,1,<rshift>,1,1,197249,380
Anodal_TS_24_A,1,test,P,172,2,820,350,R,0,NONE,0,1,198249,950
Anodal_TS_24_A,1,test,P,173,4,820,550,R,0,NONE,0,1,199249,950
Anodal_TS_24_A,1,test,P,174,4,820,550,P,1,<rshift>,1,1,200250,497
Anodal_TS_24_A,1,test,P,175,4,820,550,P,1,<rshift>,1,1,201251,423
Anodal_TS_24_A,1,test,P,176,1,620,350,P,1,<rshift>,1,1,202251,375
Anodal_TS_24_A,1,test,P,177,2,820,350,P,1,<rshift>,1,1,203250,326
Anodal_TS_24_A,1,test,P,178,1,620,350,P,1,<rshift>,1,1,204249,366
Anodal_TS_24_A,1,test,P,179,4,820,550,P,1,<rshift>,1,1,205250,355
Anodal_TS_24_A,1,test,P,180,4,820,550,P,1,<rshift>,1,1,206251,350
Anodal_TS_24_A,1,test,P,181,3,620,550,P,1,<rshift>,1,1,207251,405
Anodal_TS_24_A,1,test,P,182,2,820,350,P,1,<rshift>,1,1,208249,388
Anodal_TS_24_A,1,test,P,183,3,620,550,P,1,<rshift>,1,1,209251,355
Anodal_TS_24_A,1,test,P,184,3,620,550,P,1,<rshift>,1,1,210250,376
Anodal_TS_24_A,1,test,P,185,4,820,550,P,1,<rshift>,1,1,211251,382
Anodal_TS_24_A,1,test,P,186,2,820,350,P,1,<rshift>,1,1,212251,375
Anodal_TS_24_A,1,test,P,187,4,820,550,P,1,<rshift>,1,1,213249,370
Anodal_TS_24_A,1,test,P,188,3,620,550,P,1,<rshift>,1,1,214249,375
Anodal_TS_24_A,1,test,P,189,4,820,550,P,1,<rshift>,1,1,215250,434
Anodal_TS_24_A,1,test,P,190,3,620,550,P,1,<rshift>,1,1,216249,470
Anodal_TS_24_A,1,test,P,191,3,620,550,R,0,NONE,0,1,217251,950
Anodal_TS_24_A,1,test,P,192,4,820,550,P,1,<rshift>,1,1,218249,430
Anodal_TS_24_A,1,test,P,193,1,620,350,P,1,<rshift>,1,1,219249,531
Anodal_TS_24_A,1,test,P,194,1,620,350,R,0,NONE,0,1,220249,950
Anodal_TS_24_A,1,test,P,195,4,820,550,P,1,<rshift>,1,1,221249,519
Anodal_TS_24_A,1,test,P,196,3,620,550,P,1,<rshift>,1,1,222249,463
Anodal_TS_24_A,1,test,P,197,1,620,350,P,1,<rshift>,1,1,223249,377
Anodal_TS_24_A,1,test,P,198,3,620,550,P,1,<rshift>,1,1,224249,389
Anodal_TS_24_A,1,test,P,199,3,620,550,P,1,<rshift>,1,1,225249,351
Anodal_TS_24_A,1,test,P,200,1,620,350,P,1,<rshift>,1,1,226249,398
Anodal_TS_24_A,1,test,P,201,4,820,550,P,1,<rshift>,1,1,227251,380
Anodal_TS_24_A,1,test,P,202,3,620,550,P,1,<rshift>,1,1,228249,397
Anodal_TS_24_A,1,test,P,203,1,620,350,P,1,<rshift>,1,1,229249,575
Anodal_TS_24_A,1,test,P,204,4,820,550,P,1,<rshift>,1,1,230249,458
Anodal_TS_24_A,1,test,P,205,2,820,350,P,1,<rshift>,1,1,231251,491
Anodal_TS_24_A,1,test,P,206,2,820,350,R,0,NONE,0,1,232249,950
Anodal_TS_24_A,1,test,P,207,2,820,350,P,1,<rshift>,1,1,233250,499
Anodal_TS_24_A,1,test,P,208,4,820,550,P,1,<rshift>,1,1,234249,462
Anodal_TS_24_A,1,test,P,209,4,820,550,P,1,<rshift>,1,1,235249,343
Anodal_TS_24_A,1,test,P,210,1,620,350,P,1,<rshift>,1,1,236249,432
Anodal_TS_24_A,1,test,P,211,3,620,550,P,1,<rshift>,1,1,237249,356
Anodal_TS_24_A,1,test,P,212,1,620,350,P,1,<rshift>,1,1,238250,331
Anodal_TS_24_A,1,test,P,213,2,820,350,R,0,<rshift>,1,0,239247,336
Anodal_TS_24_A,1,test,P,214,4,820,550,R,0,NONE,0,1,240249,950
Anodal_TS_24_A,1,test,P,215,4,820,550,P,1,<rshift>,1,1,241249,441
Anodal_TS_24_A,1,test,P,216,2,820,350,P,1,<rshift>,1,1,242251,487
Anodal_TS_24_A,1,test,P,217,1,620,350,P,1,<rshift>,1,1,243249,375
Anodal_TS_24_A,1,test,P,218,4,820,550,P,1,<rshift>,1,1,244249,337
Anodal_TS_24_A,1,test,P,219,1,620,350,P,1,<rshift>,1,1,245249,348
Anodal_TS_24_A,1,test,P,220,4,820,550,P,1,<rshift>,1,1,246250,311
Anodal_TS_24_A,1,test,P,221,3,620,550,P,1,<rshift>,1,1,247251,553
Anodal_TS_24_A,1,test,P,222,1,620,350,P,1,<rshift>,1,1,248251,395
Anodal_TS_24_A,1,test,P,223,2,820,350,R,0,NONE,0,1,249249,950
Anodal_TS_24_A,1,test,P,224,4,820,550,P,1,<rshift>,1,1,250251,452
Anodal_TS_24_A,1,test,P,225,4,820,550,P,1,<rshift>,1,1,251251,400
Anodal_TS_24_A,1,test,P,226,3,620,550,P,1,<rshift>,1,1,252248,386
Anodal_TS_24_A,1,test,P,227,3,620,550,P,1,<rshift>,1,1,253249,348
Anodal_TS_24_A,1,test,P,228,4,820,550,P,1,<rshift>,1,1,254249,314
Anodal_TS_24_A,1,test,P,229,2,820,350,P,1,<rshift>,1,1,255250,348
Anodal_TS_24_A,1,test,P,230,4,820,550,P,1,<rshift>,1,1,256249,330
Anodal_TS_24_A,1,test,P,231,4,820,550,P,1,<rshift>,1,1,257250,381
Anodal_TS_24_A,1,test,P,232,1,620,350,P,1,<rshift>,1,1,258250,341
Anodal_TS_24_A,1,test,P,233,1,620,350,R,0,<rshift>,1,0,259251,349
Anodal_TS_24_A,1,test,P,234,3,620,550,P,1,<rshift>,1,1,260249,451
Anodal_TS_24_A,1,test,P,235,3,620,550,P,1,<rshift>,1,1,261251,393
Anodal_TS_24_A,1,test,P,236,2,820,350,P,1,<rshift>,1,1,262249,365
Anodal_TS_24_A,1,test,P,237,3,620,550,P,1,<rshift>,1,1,263250,541
Anodal_TS_24_A,1,test,P,238,3,620,550,P,1,<rshift>,1,1,264249,358
Anodal_TS_24_A,1,test,P,239,4,820,550,R,0,<rshift>,1,0,265249,311
Anodal_TS_24_A,1,test,P,240,1,620,350,R,0,<rshift>,1,0,266251,385
Anodal_TS_24_A,1,test,P,241,4,820,550,R,0,NONE,0,1,267249,950
Anodal_TS_24_A,1,test,P,242,2,820,350,P,1,<rshift>,1,1,268249,546
Anodal_TS_24_A,1,test,P,243,2,820,350,R,0,NONE,0,1,269249,950
Anodal_TS_24_A,1,test,P,244,4,820,550,P,1,<rshift>,1,1,270249,549
Anodal_TS_24_A,1,test,P,245,3,620,550,P,1,<rshift>,1,1,271251,421
Anodal_TS_24_A,1,test,P,246,4,820,550,R,0,NONE,0,1,272251,950
Anodal_TS_24_A,1,test,P,247,3,620,550,R,0,NONE,0,1,273251,950
Anodal_TS_24_A,1,test,P,248,4,820,550,P,1,<rshift>,1,1,274249,470
Anodal_TS_24_A,1,test,P,249,4,820,550,R,0,NONE,0,1,275250,950
Anodal_TS_24_A,1,test,P,250,3,620,550,R,0,NONE,0,1,276250,950
Anodal_TS_24_A,1,test,P,251,3,620,550,P,1,<rshift>,1,1,277249,452
Anodal_TS_24_A,1,test,P,252,2,820,350,P,1,<rshift>,1,1,278249,362
Anodal_TS_24_A,1,test,P,253,1,620,350,P,1,<rshift>,1,1,279249,383
Anodal_TS_24_A,1,test,P,254,4,820,550,R,0,<rshift>,1,0,280250,342
Anodal_TS_24_A,1,test,P,255,1,620,350,P,1,<rshift>,1,1,281249,430
Anodal_TS_24_A,1,test,P,256,3,620,550,P,1,<rshift>,1,1,282249,392
Anodal_TS_24_A,1,test,P,257,4,820,550,P,1,<rshift>,1,1,283249,392
Anodal_TS_24_A,1,test,P,258,2,820,350,P,1,<rshift>,1,1,284249,338
Anodal_TS_24_A,1,test,P,259,3,620,550,P,1,<rshift>,1,1,285249,346
Anodal_TS_24_A,1,test,P,260,3,620,550,P,1,<rshift>,1,1,286249,358
Anodal_TS_24_A,1,test,P,261,4,820,550,P,1,<rshift>,1,1,287251,352
Anodal_TS_24_A,1,test,P,262,1,620,350,P,1,<rshift>,1,1,288249,361
Anodal_TS_24_A,1,test,P,263,3,620,550,R,0,NONE,0,1,289251,950
Anodal_TS_24_A,1,test,P,264,1,620,350,P,1,<rshift>,1,1,290250,533
Anodal_TS_24_A,1,test,P,265,3,620,550,R,0,NONE,0,1,291251,950
Anodal_TS_24_A,1,test,P,266,4,820,550,P,1,<rshift>,1,1,292249,416
Anodal_TS_24_A,1,test,P,267,3,620,550,P,1,<rshift>,1,1,293251,486
Anodal_TS_24_A,1,test,P,268,4,820,550,P,1,<rshift>,1,1,294249,433
Anodal_TS_24_A,1,test,P,269,3,620,550,P,1,<rshift>,1,1,295250,403
Anodal_TS_24_A,1,test,P,270,3,620,550,P,1,<rshift>,1,1,296251,401
Anodal_TS_24_A,1,test,P,271,2,820,350,P,1,<rshift>,1,1,297250,605
Anodal_TS_24_A,1,test,P,272,3,620,550,P,1,<rshift>,1,1,298249,401
Anodal_TS_24_A,1,test,P,273,4,820,550,P,1,<rshift>,1,1,299249,388
Anodal_TS_24_A,1,test,P,274,1,620,350,R,0,NONE,0,1,300249,950
Anodal_TS_24_A,1,test,P,275,3,620,550,P,1,<rshift>,1,1,301249,528
Anodal_TS_24_A,1,test,P,276,3,620,550,P,1,<rshift>,1,1,302249,410
Anodal_TS_24_A,1,test,P,277,3,620,550,R,0,<rshift>,1,0,303249,373
Anodal_TS_24_A,1,test,P,278,3,620,550,P,1,<rshift>,1,1,304250,458
Anodal_TS_24_A,1,test,P,279,2,820,350,P,1,<rshift>,1,1,305250,381
Anodal_TS_24_A,1,test,P,280,4,820,550,P,1,<rshift>,1,1,306249,381
Anodal_TS_24_A,1,test,P,281,3,620,550,P,1,<rshift>,1,1,307249,363
Anodal_TS_24_A,1,test,P,282,2,820,350,P,1,<rshift>,1,1,308251,345
Anodal_TS_24_A,1,test,P,283,2,820,350,R,0,NONE,0,1,309249,950
Anodal_TS_24_A,1,test,P,284,1,620,350,R,0,<rshift>,1,0,310249,410
Anodal_TS_24_A,1,test,P,285,4,820,550,P,1,<rshift>,1,1,311249,360
Anodal_TS_24_A,1,test,P,286,2,820,350,P,1,<rshift>,1,1,312249,495
Anodal_TS_24_A,1,test,P,287,3,620,550,P,1,<rshift>,1,1,313249,367
Anodal_TS_24_A,1,test,P,288,1,620,350,R,0,<rshift>,1,0,314249,407
Anodal_TS_24_A,1,test,P,289,1,620,350,P,1,<rshift>,1,1,315249,454
Anodal_TS_24_A,1,test,P,290,3,620,550,R,0,NONE,0,1,316249,950
Anodal_TS_24_A,1,test,P,291,2,820,350,P,1,<rshift>,1,1,317249,464
Anodal_TS_24_A,1,test,P,292,4,820,550,P,1,<rshift>,1,1,318249,411
Anodal_TS_24_A,1,test,P,293,1,620,350,P,1,<rshift>,1,1,319249,351
Anodal_TS_24_A,1,test,P,294,3,620,550,R,0,NONE,0,1,320250,950
Anodal_TS_24_A,1,test,P,295,1,620,350,P,1,<rshift>,1,1,321249,471
Anodal_TS_24_A,1,test,P,296,1,620,350,P,1,<rshift>,1,1,322249,399
Anodal_TS_24_A,1,test,P,297,3,620,550,P,1,<rshift>,1,1,323251,381
Anodal_TS_24_A,1,test,P,298,2,820,350,P,1,<rshift>,1,1,324249,412
Anodal_TS_24_A,1,test,P,299,4,820,550,P,1,<rshift>,1,1,325249,505
Anodal_TS_24_A,1,test,P,300,2,820,350,P,1,<rshift>,1,1,326249,413
Anodal_TS_24_A,2,practice,R,1,2,820,350,P,0,<rshift>,1,0,336288,469
Anodal_TS_24_A,2,practice,R,2,1,620,350,R,1,NONE,0,0,337773,950
Anodal_TS_24_A,2,practice,R,3,1,620,350,R,1,<rshift>,1,1,339738,494
Anodal_TS_24_A,2,practice,R,4,4,820,550,P,0,NONE,0,1,340240,950
Anodal_TS_24_A,2,practice,R,5,1,620,350,R,1,<rshift>,1,1,341196,528
Anodal_TS_24_A,2,practice,R,6,3,620,550,R,1,<rshift>,1,1,341727,551
Anodal_TS_24_A,2,practice,R,7,1,620,350,R,1,<rshift>,1,1,342285,498
Anodal_TS_24_A,2,practice,R,8,4,820,550,R,1,<rshift>,1,1,343287,496
Anodal_TS_24_A,2,practice,R,9,1,620,350,R,1,<rshift>,1,1,344287,442
Anodal_TS_24_A,2,practice,R,10,4,820,550,R,1,<rshift>,1,1,345288,371
Anodal_TS_24_A,3,test,R,1,3,620,550,R,1,<rshift>,1,1,351139,505
Anodal_TS_24_A,3,test,R,2,4,820,550,R,1,<rshift>,1,1,352140,346
Anodal_TS_24_A,3,test,R,3,1,620,350,R,1,<rshift>,1,1,353140,326
Anodal_TS_24_A,3,test,R,4,2,820,350,R,1,<rshift>,1,1,354139,307
Anodal_TS_24_A,3,test,R,5,1,620,350,R,1,<rshift>,1,1,355138,307
Anodal_TS_24_A,3,test,R,6,2,820,350,R,1,<rshift>,1,1,356138,310
Anodal_TS_24_A,3,test,R,7,2,820,350,R,1,<rshift>,1,1,357140,348
Anodal_TS_24_A,3,test,R,8,4,820,550,R,1,<rshift>,1,1,358140,321
Anodal_TS_24_A,3,test,R,9,3,620,550,R,1,<rshift>,1,1,359138,301
Anodal_TS_24_A,3,test,R,10,3,620,550,R,1,<rshift>,1,1,360140,338
Anodal_TS_24_A,3,test,R,11,3,620,550,R,1,<rshift>,1,1,361138,335
Anodal_TS_24_A,3,test,R,12,2,820,350,R,1,<rshift>,1,1,362138,338
Anodal_TS_24_A,3,test,R,13,3,620,550,R,1,<rshift>,1,1,363138,329
Anodal_TS_24_A,3,test,R,14,4,820,550,R,1,<rshift>,1,1,364138,334
Anodal_TS_24_A,3,test,R,15,4,820,550,R,1,<rshift>,1,1,365138,341
Anodal_TS_24_A,3,test,R,16,4,820,550,P,0,NONE,0,1,366140,950
Anodal_TS_24_A,3,test,R,17,1,620,350,P,0,NONE,0,1,367138,950
Anodal_TS_24_A,3,test,R,18,4,820,550,R,1,<rshift>,1,1,368140,518
Anodal_TS_24_A,3,test,R,19,3,620,550,R,1,<rshift>,1,1,369140,350
Anodal_TS_24_A,3,test,R,20,2,820,350,R,1,<rshift>,1,1,370139,322
Anodal_TS_24_A,3,test,R,21,1,620,350,R,1,<rshift>,1,1,371138,361
Anodal_TS_24_A,3,test,R,22,3,620,550,P,0,<rshift>,1,0,372138,349
Anodal_TS_24_A,3,test,R,23,4,820,550,R,1,<rshift>,1,1,373138,383
Anodal_TS_24_A,3,test,R,24,4,820,550,R,1,<rshift>,1,1,374138,338
Anodal_TS_24_A,3,test,R,25,4,820,550,R,1,<rshift>,1,1,375140,334
Anodal_TS_24_A,3,test,R,26,1,620,350,P,0,NONE,0,1,376138,950
Anodal_TS_24_A,3,test,R,27,2,820,350,R,1,<rshift>,1,1,377140,496
Anodal_TS_24_A,3,test,R,28,3,620,550,R,1,<rshift>,1,1,378140,333
Anodal_TS_24_A,3,test,R,29,1,620,350,R,1,<rshift>,1,1,379138,390
Anodal_TS_24_A,3,test,R,30,1,620,350,R,1,<rshift>,1,1,380139,358
Anodal_TS_24_A,3,test,R,31,2,820,350,P,0,NONE,0,1,381139,950
Anodal_TS_24_A,3,test,R,32,3,620,550,R,1,<rshift>,1,1,382140,485
Anodal_TS_24_A,3,test,R,33,2,820,350,R,1,<rshift>,1,1,383140,338
Anodal_TS_24_A,3,test,R,34,1,620,350,R,1,<rshift>,1,1,384139,361
Anodal_TS_24_A,3,test,R,35,2,820,350,R,1,<rshift>,1,1,385139,385
Anodal_TS_24_A,3,test,R,36,2,820,350,R,1,<rshift>,1,1,386139,385
Anodal_TS_24_A,3,test,R,37,1,620,350,R,1,<rshift>,1,1,387139,492
Anodal_TS_24_A,3,test,R,38,1,620,350,R,1,<rshift>,1,1,388138,406
Anodal_TS_24_A,3,test,R,39,1,620,350,R,1,<rshift>,1,1,389140,371
Anodal_TS_24_A,3,test,R,40,4,820,550,P,0,NONE,0,1,390140,950
Anodal_TS_24_A,3,test,R,41,4,820,550,R,1,<rshift>,1,1,391138,477
Anodal_TS_24_A,3,test,R,42,3,620,550,R,1,<rshift>,1,1,392139,476
Anodal_TS_24_A,3,test,R,43,4,820,550,R,1,<rshift>,1,1,393140,389
Anodal_TS_24_A,3,test,R,44,3,620,550,R,1,<rshift>,1,1,394138,397
Anodal_TS_24_A,3,test,R,45,1,620,350,R,1,<rshift>,1,1,395140,366
Anodal_TS_24_A,3,test,R,46,2,820,350,P,0,NONE,0,1,396138,950
Anodal_TS_24_A,3,test,R,47,4,820,550,R,1,<rshift>,1,1,397138,444
Anodal_TS_24_A,3,test,R,48,4,820,550,R,1,<rshift>,1,1,398138,349
Anodal_TS_24_A,3,test,R,49,3,620,550,R,1,<rshift>,1,1,399138,535
Anodal_TS_24_A,3,test,R,50,2,820,350,R,1,<rshift>,1,1,400138,410
Anodal_TS_24_A,3,test,R,51,2,820,350,R,1,<rshift>,1,1,401138,377
Anodal_TS_24_A,3,test,R,52,3,620,550,R,1,<rshift>,1,1,402138,414
Anodal_TS_24_A,3,test,R,53,3,620,550,R,1,<rshift>,1,1,403138,409
Anodal_TS_24_A,3,test,R,54,1,620,350,R,1,<rshift>,1,1,404138,495
Anodal_TS_24_A,3,test,R,55,3,620,550,R,1,<rshift>,1,1,405138,505
Anodal_TS_24_A,3,test,R,56,2,820,350,R,1,<rshift>,1,1,406138,410
Anodal_TS_24_A,3,test,R,57,2,820,350,P,0,NONE,0,1,407138,950
Anodal_TS_24_A,3,test,R,58,2,820,350,R,1,<rshift>,1,1,408138,434
Anodal_TS_24_A,3,test,R,59,2,820,350,R,1,<rshift>,1,1,409138,569
Anodal_TS_24_A,3,test,R,60,1,620,350,R,1,<rshift>,1,1,410138,386
Anodal_TS_24_A,3,test,R,61,4,820,550,R,1,<rshift>,1,1,411138,309
Anodal_TS_24_A,3,test,R,62,3,620,550,R,1,<rshift>,1,1,412138,344
Anodal_TS_24_A,3,test,R,63,3,620,550,R,1,<rshift>,1,1,413138,314
Anodal_TS_24_A,3,test,R,64,2,820,350,R,1,<rshift>,1,1,414138,349
Anodal_TS_24_A,3,test,R,65,1,620,350,R,1,<rshift>,1,1,415138,333
Anodal_TS_24_A,3,test,R,66,3,620,550,R,1,<rshift>,1,1,416138,354
Anodal_TS_24_A,3,test,R,67,1,620,350,R,1,<rshift>,1,1,417138,343
Anodal_TS_24_A,3,test,R,68,4,820,550,P,0,<rshift>,1,0,418138,333
Anodal_TS_24_A,3,test,R,69,4,820,550,R,1,<rshift>,1,1,419138,436
Anodal_TS_24_A,3,test,R,70,4,820,550,R,1,<rshift>,1,1,420138,354
Anodal_TS_24_A,3,test,R,71,1,620,350,R,1,<rshift>,1,1,421139,392
Anodal_TS_24_A,3,test,R,72,4,820,550,R,1,<rshift>,1,1,422138,367
Anodal_TS_24_A,3,test,R,73,1,620,350,R,1,<rshift>,1,1,423140,386
Anodal_TS_24_A,3,test,R,74,1,620,350,R,1,<rshift>,1,1,424139,373
Anodal_TS_24_A,3,test,R,75,2,820,350,P,0,NONE,0,1,425138,950
Anodal_TS_24_A,3,test,R,76,2,820,350,R,1,<rshift>,1,1,426138,467
Anodal_TS_24_A,3,test,R,77,2,820,350,R,1,<rshift>,1,1,427138,379
Anodal_TS_24_A,3,test,R,78,2,820,350,R,1,<rshift>,1,1,428138,357
Anodal_TS_24_A,3,test,R,79,4,820,550,R,1,<rshift>,1,1,429140,387
Anodal_TS_24_A,3,test,R,80,1,620,350,R,1,<rshift>,1,1,430138,313
Anodal_TS_24_A,3,test,R,81,2,820,350,R,1,<rshift>,1,1,431138,332
Anodal_TS_24_A,3,test,R,82,4,820,550,R,1,<rshift>,1,1,432140,313
Anodal_TS_24_A,3,test,R,83,2,820,350,R,1,<rshift>,1,1,433138,378
Anodal_TS_24_A,3,test,R,84,4,820,550,R,1,<rshift>,1,1,434138,394
Anodal_TS_24_A,3,test,R,85,4,820,550,R,1,<rshift>,1,1,435140,395
Anodal_TS_24_A,3,test,R,86,2,820,350,R,1,<rshift>,1,1,436138,378
Anodal_TS_24_A,3,test,R,87,3,620,550,R,1,<rshift>,1,1,437140,365
Anodal_TS_24_A,3,test,R,88,3,620,550,R,1,<rshift>,1,1,438140,347
Anodal_TS_24_A,3,test,R,89,2,820,350,R,1,<rshift>,1,1,439138,347
Anodal_TS_24_A,3,test,R,90,4,820,550,R,1,<rshift>,1,1,440138,412
Anodal_TS_24_A,3,test,R,91,3,620,550,R,1,<rshift>,1,1,441138,350
Anodal_TS_24_A,3,test,R,92,1,620,350,R,1,<rshift>,1,1,442138,349
Anodal_TS_24_A,3,test,R,93,2,820,350,R,1,<rshift>,1,1,443138,405
Anodal_TS_24_A,3,test,R,94,1,620,350,P,0,<rshift>,1,0,444138,373
Anodal_TS_24_A,3,test,R,95,2,820,350,R,1,<rshift>,1,1,445139,372
Anodal_TS_24_A,3,test,R,96,2,820,350,P,0,NONE,0,1,446138,950
Anodal_TS_24_A,3,test,R,97,2,820,350,R,1,<rshift>,1,1,447138,384
Anodal_TS_24_A,3,test,R,98,3,620,550,R,1,<rshift>,1,1,448139,342
Anodal_TS_24_A,3,test,R,99,1,620,350,R,1,<rshift>,1,1,449138,464
Anodal_TS_24_A,3,test,R,100,3,620,550,R,1,<rshift>,1,1,450140,451
Anodal_TS_24_A,3,test,R,101,1,620,350,R,1,<rshift>,1,1,451138,382
Anodal_TS_24_A,3,test,R,102,3,620,550,R,1,<rshift>,1,1,452138,393
Anodal_TS_24_A,3,test,R,103,1,620,350,R,1,<rshift>,1,1,453140,536
Anodal_TS_24_A,3,test,R,104,2,820,350,R,1,<rshift>,1,1,454138,317
Anodal_TS_24_A,3,test,R,105,4,820,550,R,1,<rshift>,1,1,455140,479
Anodal_TS_24_A,3,test,R,106,1,620,350,R,1,<rshift>,1,1,456138,324
Anodal_TS_24_A,3,test,R,107,3,620,550,P,0,NONE,0,1,457139,950
Anodal_TS_24_A,3,test,R,108,4,820,550,R,1,<rshift>,1,1,458140,423
Anodal_TS_24_A,3,test,R,109,1,620,350,R,1,<rshift>,1,1,459138,335
Anodal_TS_24_A,3,test,R,110,1,620,350,R,1,<rshift>,1,1,460138,377
Anodal_TS_24_A,3,test,R,111,1,620,350,R,1,<rshift>,1,1,461140,424
Anodal_TS_24_A,3,test,R,112,4,820,550,P,0,<rshift>,1,0,462140,373
Anodal_TS_24_A,3,test,R,113,4,820,550,R,1,<rshift>,1,1,463140,536
Anodal_TS_24_A,3,test,R,114,4,820,550,R,1,<rshift>,1,1,464138,496
Anodal_TS_24_A,3,test,R,115,3,620,550,R,1,<rshift>,1,1,465138,489
Anodal_TS_24_A,3,test,R,116,2,820,350,R,1,<rshift>,1,1,466140,373
Anodal_TS_24_A,3,test,R,117,4,820,550,R,1,<rshift>,1,1,467138,507
Anodal_TS_24_A,3,test,R,118,1,620,350,R,1,<rshift>,1,1,468140,366
Anodal_TS_24_A,3,test,R,119,1,620,350,R,1,<rshift>,1,1,469138,369
Anodal_TS_24_A,3,test,R,120,2,820,350,R,1,<rshift>,1,1,470138,399
Anodal_TS_24_A,3,test,R,121,1,620,350,R,1,<rshift>,1,1,471140,536
Anodal_TS_24_A,3,test,R,122,3,620,550,P,0,NONE,0,1,472138,950
Anodal_TS_24_A,3,test,R,123,2,820,350,P,0,NONE,0,1,473138,950
Anodal_TS_24_A,3,test,R,124,2,820,350,P,0,NONE,0,1,474140,950
Anodal_TS_24_A,3,test,R,125,3,620,550,R,1,<rshift>,1,1,475138,472
Anodal_TS_24_A,3,test,R,126,2,820,350,R,1,<rshift>,1,1,476140,491
Anodal_TS_24_A,3,test,R,127,3,620,550,R,1,<rshift>,1,1,477139,393
Anodal_TS_24_A,3,test,R,128,1,620,350,R,1,<rshift>,1,1,478140,357
Anodal_TS_24_A,3,test,R,129,2,820,350,R,1,<rshift>,1,1,479138,321
Anodal_TS_24_A,3,test,R,130,1,620,350,P,0,<rshift>,1,0,480140,333
Anodal_TS_24_A,3,test,R,131,1,620,350,R,1,<rshift>,1,1,481140,504
Anodal_TS_24_A,3,test,R,132,1,620,350,R,1,<rshift>,1,1,482140,421
Anodal_TS_24_A,3,test,R,133,2,820,350,R,1,<rshift>,1,1,483138,519
Anodal_TS_24_A,3,test,R,134,2,820,350,R,1,<rshift>,1,1,484138,444
Anodal_TS_24_A,3,test,R,135,3,620,550,R,1,<rshift>,1,1,485140,450
Anodal_TS_24_A,3,test,R,136,2,820,350,R,1,<rshift>,1,1,486138,413
Anodal_TS_24_A,3,test,R,137,1,620,350,R,1,<rshift>,1,1,487138,487
Anodal_TS_24_A,3,test,R,138,4,820,550,R,1,<rshift>,1,1,488138,415
Anodal_TS_24_A,3,test,R,139,3,620,550,R,1,<rshift>,1,1,489138,421
Anodal_TS_24_A,3,test,R,140,3,620,550,R,1,<rshift>,1,1,490138,476
Anodal_TS_24_A,3,test,R,141,2,820,350,P,0,NONE,0,1,491138,950
Anodal_TS_24_A,3,test,R,142,3,620,550,P,0,NONE,0,1,492138,950
Anodal_TS_24_A,3,test,R,143,1,620,350,P,0,NONE,0,1,493138,950
Anodal_TS_24_A,3,test,R,144,4,820,550,R,1,<rshift>,1,1,494138,562
Anodal_TS_24_A,3,test,R,145,2,820,350,R,1,<rshift>,1,1,495140,352
Anodal_TS_24_A,3,test,R,146,4,820,550,R,1,<rshift>,1,1,496138,343
Anodal_TS_24_A,3,test,R,147,4,820,550,R,1,<rshift>,1,1,497140,330
Anodal_TS_24_A,3,test,R,148,3,620,550,R,1,<rshift>,1,1,498140,467
Anodal_TS_24_A,3,test,R,149,3,620,550,R,1,<rshift>,1,1,499138,341
Anodal_TS_24_A,3,test,R,150,2,820,350,P,0,<rshift>,1,0,500140,354
Anodal_TS_24_A,3,test,R,151,2,820,350,R,1,<rshift>,1,1,501138,449
Anodal_TS_24_A,3,test,R,152,2,820,350,R,1,<rshift>,1,1,502139,361
Anodal_TS_24_A,3,test,R,153,1,620,350,P,0,NONE,0,1,503140,950
Anodal_TS_24_A,3,test,R,154,4,820,550,P,0,NONE,0,1,504138,950
Anodal_TS_24_A,3,test,R,155,2,820,350,R,1,<rshift>,1,1,505138,520
Anodal_TS_24_A,3,test,R,156,1,620,350,R,1,<rshift>,1,1,506138,377
Anodal_TS_24_A,3,test,R,157,2,820,350,P,0,<rshift>,1,0,507140,318
Anodal_TS_24_A,3,test,R,158,3,620,550,R,1,<rshift>,1,1,508138,392
Anodal_TS_24_A,3,test,R,159,3,620,550,P,0,NONE,0,1,509140,950
Anodal_TS_24_A,3,test,R,160,2,820,350,R,1,<rshift>,1,1,510138,493
Anodal_TS_24_A,3,test,R,161,2,820,350,P,0,<rshift>,1,0,511138,369
Anodal_TS_24_A,3,test,R,162,2,820,350,R,1,<rshift>,1,1,512138,509
Anodal_TS_24_A,3,test,R,163,4,820,550,R,1,<rshift>,1,1,513139,363
Anodal_TS_24_A,3,test,R,164,2,820,350,P,0,NONE,0,1,514138,950
Anodal_TS_24_A,3,test,R,165,3,620,550,R,1,<rshift>,1,1,515138,448
Anodal_TS_24_A,3,test,R,166,1,620,350,R,1,<rshift>,1,1,516138,526
Anodal_TS_24_A,3,test,R,167,1,620,350,R,1,<rshift>,1,1,517138,547
Anodal_TS_24_A,3,test,R,168,3,620,550,P,0,NONE,0,1,518140,950
Anodal_TS_24_A,3,test,R,169,3,620,550,R,1,<rshift>,1,1,519138,433
Anodal_TS_24_A,3,test,R,170,3,620,550,R,1,<rshift>,1,1,520138,382
Anodal_TS_24_A,3,test,R,171,1,620,350,R,1,<rshift>,1,1,521140,532
Anodal_TS_24_A,3,test,R,172,1,620,350,R,1,<rshift>,1,1,522138,379
Anodal_TS_24_A,3,test,R,173,3,620,550,R,1,<rshift>,1,1,523138,374
Anodal_TS_24_A,3,test,R,174,3,620,550,R,1,<rshift>,1,1,524138,389
Anodal_TS_24_A,3,test,R,175,3,620,550,R,1,<rshift>,1,1,525140,471
Anodal_TS_24_A,3,test,R,176,1,620,350,R,1,<rshift>,1,1,526138,434
Anodal_TS_24_A,3,test,R,177,4,820,550,R,1,<rshift>,1,1,527140,424
Anodal_TS_24_A,3,test,R,178,3,620,550,R,1,<rshift>,1,1,528138,400
Anodal_TS_24_A,3,test,R,179,1,620,350,R,1,<rshift>,1,1,529138,372
Anodal_TS_24_A,3,test,R,180,2,820,350,R,1,<rshift>,1,1,530140,355
Anodal_TS_24_A,3,test,R,181,3,620,550,R,1,<rshift>,1,1,531140,345
Anodal_TS_24_A,3,test,R,182,2,820,350,R,1,<rshift>,1,1,532139,332
Anodal_TS_24_A,3,test,R,183,2,820,350,R,1,<rshift>,1,1,533138,358
Anodal_TS_24_A,3,test,R,184,1,620,350,P,0,<rshift>,1,0,534138,353
Anodal_TS_24_A,3,test,R,185,4,820,550,R,1,<rshift>,1,1,535139,328
Anodal_TS_24_A,3,test,R,186,2,820,350,R,1,<rshift>,1,1,536139,401
Anodal_TS_24_A,3,test,R,187,1,620,350,P,0,NONE,0,1,537138,950
Anodal_TS_24_A,3,test,R,188,2,820,350,P,0,NONE,0,1,538138,950
Anodal_TS_24_A,3,test,R,189,2,820,350,R,1,<rshift>,1,1,539138,457
Anodal_TS_24_A,3,test,R,190,2,820,350,R,1,<rshift>,1,1,540140,338
Anodal_TS_24_A,3,test,R,191,2,820,350,P,0,NONE,0,1,541138,950
Anodal_TS_24_A,3,test,R,192,3,620,550,P,0,NONE,0,1,542138,950
Anodal_TS_24_A,3,test,R,193,3,620,550,P,0,NONE,0,1,543138,950
Anodal_TS_24_A,3,test,R,194,1,620,350,R,1,<rshift>,1,1,544138,449
Anodal_TS_24_A,3,test,R,195,1,620,350,R,1,<rshift>,1,1,545138,342
Anodal_TS_24_A,3,test,R,196,1,620,350,P,0,<rshift>,1,0,546139,352
Anodal_TS_24_A,3,test,R,197,2,820,350,R,1,<rshift>,1,1,547139,388
Anodal_TS_24_A,3,test,R,198,1,620,350,R,1,<rshift>,1,1,548138,388
Anodal_TS_24_A,3,test,R,199,1,620,350,R,1,<rshift>,1,1,549140,402
Anodal_TS_24_A,3,test,R,200,4,820,550,R,1,<rshift>,1,1,550139,385
Anodal_TS_24_A,3,test,R,201,2,820,350,P,0,<rshift>,1,0,551140,356
Anodal_TS_24_A,3,test,R,202,2,820,350,R,1,<rshift>,1,1,552140,462
Anodal_TS_24_A,3,test,R,203,1,620,350,R,1,<rshift>,1,1,553139,507
Anodal_TS_24_A,3,test,R,204,3,620,550,R,1,<rshift>,1,1,554138,415
Anodal_TS_24_A,3,test,R,205,4,820,550,R,1,<rshift>,1,1,555140,400
Anodal_TS_24_A,3,test,R,206,2,820,350,R,1,<rshift>,1,1,556140,515
Anodal_TS_24_A,3,test,R,207,1,620,350,R,1,<rshift>,1,1,557140,428
Anodal_TS_24_A,3,test,R,208,2,820,350,P,0,NONE,0,1,558139,950
Anodal_TS_24_A,3,test,R,209,3,620,550,R,1,<rshift>,1,1,559139,429
Anodal_TS_24_A,3,test,R,210,2,820,350,R,1,<rshift>,1,1,560140,416
Anodal_TS_24_A,3,test,R,211,1,620,350,P,0,NONE,0,1,561138,950
Anodal_TS_24_A,3,test,R,212,1,620,350,P,0,NONE,0,1,562139,950
Anodal_TS_24_A,3,test,R,213,1,620,350,R,1,<rshift>,1,1,563140,477
Anodal_TS_24_A,3,test,R,214,2,820,350,R,1,<rshift>,1,1,564138,338
Anodal_TS_24_A,3,test,R,215,4,820,550,R,1,<rshift>,1,1,565138,330
Anodal_TS_24_A,3,test,R,216,1,620,350,R,1,<rshift>,1,1,566138,388
Anodal_TS_24_A,3,test,R,217,1,620,350,R,1,<rshift>,1,1,567138,398
Anodal_TS_24_A,3,test,R,218,4,820,550,R,1,<rshift>,1,1,568138,376
Anodal_TS_24_A,3,test,R,219,1,620,350,R,1,<rshift>,1,1,569138,375
Anodal_TS_24_A,3,test,R,220,3,620,550,R,1,<rshift>,1,1,570140,376
Anodal_TS_24_A,3,test,R,221,1,620,350,P,0,NONE,0,1,571138,950
Anodal_TS_24_A,3,test,R,222,2,820,350,R,1,<rshift>,1,1,572139,419
Anodal_TS_24_A,3,test,R,223,4,820,550,R,1,<rshift>,1,1,573138,348
Anodal_TS_24_A,3,test,R,224,1,620,350,R,1,<rshift>,1,1,574140,515
Anodal_TS_24_A,3,test,R,225,1,620,350,R,1,<rshift>,1,1,575140,404
Anodal_TS_24_A,3,test,R,226,1,620,350,R,1,<rshift>,1,1,576140,375
Anodal_TS_24_A,3,test,R,227,4,820,550,R,1,<rshift>,1,1,577139,382
Anodal_TS_24_A,3,test,R,228,4,820,550,R,1,<rshift>,1,1,578138,376
Anodal_TS_24_A,3,test,R,229,3,620,550,P,0,NONE,0,1,579138,950
Anodal_TS_24_A,3,test,R,230,3,620,550,R,1,<rshift>,1,1,580138,405
Anodal_TS_24_A,3,test,R,231,1,620,350,P,0,<rshift>,1,0,581138,392
Anodal_TS_24_A,3,test,R,232,4,820,550,R,1,<rshift>,1,1,582139,341
Anodal_TS_24_A,3,test,R,233,2,820,350,R,1,<rshift>,1,1,583139,416
Anodal_TS_24_A,3,test,R,234,2,820,350,R,1,<rshift>,1,1,584138,410
Anodal_TS_24_A,3,test,R,235,2,820,350,R,1,<rshift>,1,1,585138,405
Anodal_TS_24_A,3,test,R,236,3,620,550,R,1,<rshift>,1,1,586138,388
Anodal_TS_24_A,3,test,R,237,1,620,350,R,1,<rshift>,1,1,587138,553
Anodal_TS_24_A,3,test,R,238,2,820,350,P,0,NONE,0,1,588138,950
Anodal_TS_24_A,3,test,R,239,3,620,550,R,1,<rshift>,1,1,589138,404
Anodal_TS_24_A,3,test,R,240,2,820,350,R,1,<rshift>,1,1,590138,431
Anodal_TS_24_A,3,test,R,241,2,820,350,R,1,<rshift>,1,1,591140,391
Anodal_TS_24_A,3,test,R,242,4,820,550,P,0,NONE,0,1,592139,951
Anodal_TS_24_A,3,test,R,243,3,620,550,R,1,<rshift>,1,1,593138,404
Anodal_TS_24_A,3,test,R,244,4,820,550,R,1,<rshift>,1,1,594138,379
Anodal_TS_24_A,3,test,R,245,2,820,350,R,1,<rshift>,1,1,595138,430
Anodal_TS_24_A,3,test,R,246,2,820,350,P,0,NONE,0,1,596140,950
Anodal_TS_24_A,3,test,R,247,2,820,350,R,1,<rshift>,1,1,597138,478
Anodal_TS_24_A,3,test,R,248,3,620,550,R,1,<rshift>,1,1,598140,375
Anodal_TS_24_A,3,test,R,249,2,820,350,R,1,<rshift>,1,1,599138,397
Anodal_TS_24_A,3,test,R,250,4,820,550,P,0,NONE,0,1,600140,950
Anodal_TS_24_A,3,test,R,251,4,820,550,R,1,<rshift>,1,1,601138,401
Anodal_TS_24_A,3,test,R,252,1,620,350,R,1,<rshift>,1,1,602138,401
Anodal_TS_24_A,3,test,R,253,2,820,350,P,0,<rshift>,1,0,603139,330
Anodal_TS_24_A,3,test,R,254,4,820,550,R,1,<rshift>,1,1,604140,453
Anodal_TS_24_A,3,test,R,255,3,620,550,R,1,<rshift>,1,1,605140,358
Anodal_TS_24_A,3,test,R,256,2,820,350,R,1,<rshift>,1,1,606138,411
Anodal_TS_24_A,3,test,R,257,4,820,550,R,1,<rshift>,1,1,607140,377
Anodal_TS_24_A,3,test,R,258,1,620,350,P,0,NONE,0,1,608138,950
Anodal_TS_24_A,3,test,R,259,1,620,350,R,1,<rshift>,1,1,609138,470
Anodal_TS_24_A,3,test,R,260,2,820,350,R,1,<rshift>,1,1,610138,417
Anodal_TS_24_A,3,test,R,261,2,820,350,R,1,<rshift>,1,1,611138,392
Anodal_TS_24_A,3,test,R,262,4,820,550,R,1,<rshift>,1,1,612140,382
Anodal_TS_24_A,3,test,R,263,3,620,550,P,0,<rshift>,1,0,613139,359
Anodal_TS_24_A,3,test,R,264,2,820,350,R,1,<rshift>,1,1,614138,431
Anodal_TS_24_A,3,test,R,265,1,620,350,P,0,NONE,0,1,615140,950
Anodal_TS_24_A,3,test,R,266,4,820,550,R,1,<rshift>,1,1,616138,399
Anodal_TS_24_A,3,test,R,267,2,820,350,R,1,<rshift>,1,1,617138,396
Anodal_TS_24_A,3,test,R,268,1,620,350,R,1,<rshift>,1,1,618138,736
Anodal_TS_24_A,3,test,R,269,4,820,550,R,1,<rshift>,1,1,619140,409
Anodal_TS_24_A,3,test,R,270,4,820,550,R,1,<rshift>,1,1,620138,367
Anodal_TS_24_A,3,test,R,271,4,820,550,R,1,<rshift>,1,1,621140,342
Anodal_TS_24_A,3,test,R,272,3,620,550,P,0,NONE,0,1,622140,950
Anodal_TS_24_A,3,test,R,273,3,620,550,R,1,<rshift>,1,1,623138,461
Anodal_TS_24_A,3,test,R,274,4,820,550,P,0,NONE,0,1,624138,950
Anodal_TS_24_A,3,test,R,275,2,820,350,P,0,NONE,0,1,625138,950
Anodal_TS_24_A,3,test,R,276,2,820,350,P,0,NONE,0,1,626138,950
Anodal_TS_24_A,3,test,R,277,1,620,350,R,1,<rshift>,1,1,627138,511
Anodal_TS_24_A,3,test,R,278,4,820,550,R,1,<rshift>,1,1,628138,389
Anodal_TS_24_A,3,test,R,279,3,620,550,R,1,<rshift>,1,1,629138,357
Anodal_TS_24_A,3,test,R,280,1,620,350,R,1,<rshift>,1,1,630140,375
Anodal_TS_24_A,3,test,R,281,3,620,550,R,1,<rshift>,1,1,631140,372
Anodal_TS_24_A,3,test,R,282,4,820,550,P,0,<rshift>,1,0,632140,353
Anodal_TS_24_A,3,test,R,283,2,820,350,R,1,<rshift>,1,1,633138,526
Anodal_TS_24_A,3,test,R,284,3,620,550,R,1,<rshift>,1,1,634138,435
Anodal_TS_24_A,3,test,R,285,1,620,350,P,0,NONE,0,1,635140,950
Anodal_TS_24_A,3,test,R,286,2,820,350,R,1,<rshift>,1,1,636138,410
Anodal_TS_24_A,3,test,R,287,4,820,550,R,1,<rshift>,1,1,637138,385
Anodal_TS_24_A,3,test,R,288,4,820,550,P,0,NONE,0,1,638138,950
Anodal_TS_24_A,3,test,R,289,4,820,550,R,1,<rshift>,1,1,639138,417
Anodal_TS_24_A,3,test,R,290,1,620,350,R,1,<rshift>,1,1,640138,469
Anodal_TS_24_A,3,test,R,291,2,820,350,R,1,<rshift>,1,1,641139,384
Anodal_TS_24_A,3,test,R,292,3,620,550,R,1,<rshift>,1,1,642139,453
Anodal_TS_24_A,3,test,R,293,4,820,550,P,0,NONE,0,1,643138,950
Anodal_TS_24_A,3,test,R,294,4,820,550,R,1,<rshift>,1,1,644138,554
Anodal_TS_24_A,3,test,R,295,4,820,550,P,0,NONE,0,1,645138,950
Anodal_TS_24_A,3,test,R,296,3,620,550,R,1,<rshift>,1,1,646138,412
Anodal_TS_24_A,3,test,R,297,4,820,550,R,1,<rshift>,1,1,647138,483
Anodal_TS_24_A,3,test,R,298,3,620,550,R,1,<rshift>,1,1,648138,396
Anodal_TS_24_A,3,test,R,299,4,820,550,R,1,<rshift>,1,1,649140,363
Anodal_TS_24_A,3,test,R,300,4,820,550,R,1,<rshift>,1,1,650140,484
