subnum,block,type,correctresponse,trial,choice,x,y,stim,present,response,responded,corr,starttime,rt
19A,0,practice,P,1,4,740,460,P,1,<rshift>,1,1,8077,371
19A,0,practice,P,2,3,540,460,P,1,<rshift>,1,1,9076,348
19A,0,practice,P,3,1,540,260,R,0,NONE,0,1,10080,953
19A,0,practice,P,4,2,740,260,P,1,<rshift>,1,1,11077,363
19A,0,practice,P,5,2,740,260,P,1,<rshift>,1,1,12074,386
19A,0,practice,P,6,3,540,460,P,1,<rshift>,1,1,13074,328
19A,0,practice,P,7,3,540,460,P,1,<rshift>,1,1,14076,364
19A,0,practice,P,8,3,540,460,R,0,NONE,0,1,15079,954
19A,0,practice,P,9,4,740,460,P,1,<rshift>,1,1,16078,365
19A,0,practice,P,10,1,540,260,P,1,<rshift>,1,1,17077,320
19A,1,test,P,1,3,540,460,P,1,<rshift>,1,1,21853,535
19A,1,test,P,2,3,540,460,R,0,NONE,0,1,22851,953
19A,1,test,P,3,3,540,460,P,1,<rshift>,1,1,23849,351
19A,1,test,P,4,2,740,260,P,1,<rshift>,1,1,24852,342
19A,1,test,P,5,4,740,460,P,1,<rshift>,1,1,25852,423
19A,1,test,P,6,3,540,460,R,0,<rshift>,1,0,26850,351
19A,1,test,P,7,2,740,260,P,1,<rshift>,1,1,27852,392
19A,1,test,P,8,3,540,460,P,1,<rshift>,1,1,28854,338
19A,1,test,P,9,2,740,260,P,1,<rshift>,1,1,29857,337
19A,1,test,P,10,3,540,460,P,1,<rshift>,1,1,30847,379
19A,1,test,P,11,3,540,460,P,1,<rshift>,1,1,31853,448
19A,1,test,P,12,2,740,260,P,1,<rshift>,1,1,32852,433
19A,1,test,P,13,4,740,460,P,1,<rshift>,1,1,33852,408
19A,1,test,P,14,2,740,260,R,0,<rshift>,1,0,34848,374
19A,1,test,P,15,2,740,260,P,1,<rshift>,1,1,35853,448
19A,1,test,P,16,2,740,260,P,1,<rshift>,1,1,36855,433
19A,1,test,P,17,4,740,460,P,1,<rshift>,1,1,37852,404
19A,1,test,P,18,3,540,460,P,1,<rshift>,1,1,38853,462
19A,1,test,P,19,2,740,260,R,0,NONE,0,1,39850,952
19A,1,test,P,20,4,740,460,P,1,<rshift>,1,1,40850,336
19A,1,test,P,21,1,540,260,R,0,NONE,0,1,41853,953
19A,1,test,P,22,3,540,460,P,1,<rshift>,1,1,42837,417
19A,1,test,P,23,2,740,260,P,1,<rshift>,1,1,43855,324
19A,1,test,P,24,3,540,460,P,1,<rshift>,1,1,44849,320
19A,1,test,P,25,3,540,460,P,1,<rshift>,1,1,45851,459
19A,1,test,P,26,2,740,260,P,1,<rshift>,1,1,46850,365
19A,1,test,P,27,4,740,460,P,1,<rshift>,1,1,47851,425
19A,1,test,P,28,2,740,260,P,1,<rshift>,1,1,48856,309
19A,1,test,P,29,3,540,460,R,0,<rshift>,1,0,49848,340
19A,1,test,P,30,2,740,260,P,1,<rshift>,1,1,50850,379
19A,1,test,P,31,3,540,460,R,0,NONE,0,1,51848,953
19A,1,test,P,32,1,540,260,R,0,<rshift>,1,0,52844,366
19A,1,test,P,33,3,540,460,P,1,<rshift>,1,1,53849,534
19A,1,test,P,34,4,740,460,R,0,NONE,0,1,54850,952
19A,1,test,P,35,3,540,460,P,1,<rshift>,1,1,55849,325
19A,1,test,P,36,2,740,260,R,0,NONE,0,1,56852,952
19A,1,test,P,37,1,540,260,P,1,<rshift>,1,1,57851,747
19A,1,test,P,38,4,740,460,P,1,<rshift>,1,1,58852,336
19A,1,test,P,39,1,540,260,P,1,<rshift>,1,1,59854,346
19A,1,test,P,40,3,540,460,P,1,<rshift>,1,1,60845,432
19A,1,test,P,41,3,540,460,P,1,<rshift>,1,1,61836,392
19A,1,test,P,42,4,740,460,R,0,NONE,0,1,62845,952
19A,1,test,P,43,1,540,260,P,1,<rshift>,1,1,63851,293
19A,1,test,P,44,3,540,460,P,1,<rshift>,1,1,64849,431
19A,1,test,P,45,3,540,460,P,1,<rshift>,1,1,65851,426
19A,1,test,P,46,3,540,460,P,1,<rshift>,1,1,66849,466
19A,1,test,P,47,3,540,460,P,1,<rshift>,1,1,67853,416
19A,1,test,P,48,1,540,260,R,0,NONE,0,1,68853,952
19A,1,test,P,49,4,740,460,P,1,<rshift>,1,1,69849,328
19A,1,test,P,50,3,540,460,P,1,<rshift>,1,1,70849,323
19A,1,test,P,51,1,540,260,P,1,<rshift>,1,1,71852,365
19A,1,test,P,52,1,540,260,P,1,<rshift>,1,1,72851,337
19A,1,test,P,53,4,740,460,P,1,<rshift>,1,1,73851,340
19A,1,test,P,54,4,740,460,P,1,<rshift>,1,1,74853,346
19A,1,test,P,55,3,540,460,P,1,<rshift>,1,1,75836,399
19A,1,test,P,56,2,740,260,P,1,<rshift>,1,1,76850,347
19A,1,test,P,57,3,540,460,P,1,<rshift>,1,1,77852,286
19A,1,test,P,58,3,540,460,P,1,<rshift>,1,1,78849,332
19A,1,test,P,59,2,740,260,P,1,<rshift>,1,1,79851,345
19A,1,test,P,60,2,740,260,R,0,<rshift>,1,0,80853,355
19A,1,test,P,61,1,540,260,P,1,<rshift>,1,1,81838,372
19A,1,test,P,62,4,740,460,R,0,NONE,0,1,82857,953
19A,1,test,P,63,3,540,460,P,1,<rshift>,1,1,83839,328
19A,1,test,P,64,4,740,460,P,1,<rshift>,1,1,84846,334
19A,1,test,P,65,3,540,460,P,1,<rshift>,1,1,85846,315
19A,1,test,P,66,2,740,260,P,1,<rshift>,1,1,86854,318
19A,1,test,P,67,3,540,460,P,1,<rshift>,1,1,87844,344
19A,1,test,P,68,4,740,460,R,0,NONE,0,1,88840,952
19A,1,test,P,69,4,740,460,P,1,<rshift>,1,1,89837,444
19A,1,test,P,70,3,540,460,R,0,NONE,0,1,90850,953
19A,1,test,P,71,3,540,460,P,1,<rshift>,1,1,91850,343
19A,1,test,P,72,2,740,260,P,1,<rshift>,1,1,92850,334
19A,1,test,P,73,1,540,260,R,0,NONE,0,1,93855,952
19A,1,test,P,74,2,740,260,P,1,<rshift>,1,1,94851,295
19A,1,test,P,75,1,540,260,P,1,<rshift>,1,1,95852,352
19A,1,test,P,76,4,740,460,R,0,NONE,0,1,96850,953
19A,1,test,P,77,1,540,260,P,1,<rshift>,1,1,97856,272
19A,1,test,P,78,3,540,460,P,1,<rshift>,1,1,98854,476
19A,1,test,P,79,3,540,460,P,1,<rshift>,1,1,99849,357
19A,1,test,P,80,1,540,260,R,0,<rshift>,1,0,100848,321
19A,1,test,P,81,3,540,460,P,1,<rshift>,1,1,101849,342
19A,1,test,P,82,4,740,460,P,1,<rshift>,1,1,102850,495
19A,1,test,P,83,1,540,260,R,0,NONE,0,1,103853,952
19A,1,test,P,84,1,540,260,P,1,<rshift>,1,1,104852,363
19A,1,test,P,85,1,540,260,P,1,<rshift>,1,1,105852,352
19A,1,test,P,86,2,740,260,P,1,<rshift>,1,1,106857,396
19A,1,test,P,87,2,740,260,P,1,<rshift>,1,1,107850,353
19A,1,test,P,88,4,740,460,P,1,<rshift>,1,1,108850,369
19A,1,test,P,89,2,740,260,P,1,<rshift>,1,1,109850,337
19A,1,test,P,90,2,740,260,P,1,<rshift>,1,1,110851,317
19A,1,test,P,91,3,540,460,P,1,<rshift>,1,1,111852,404
19A,1,test,P,92,2,740,260,P,1,<rshift>,1,1,112852,378
19A,1,test,P,93,2,740,260,P,1,<rshift>,1,1,113849,323
19A,1,test,P,94,4,740,460,R,0,<rshift>,1,0,114846,310
19A,1,test,P,95,2,740,260,P,1,<rshift>,1,1,115846,373
19A,1,test,P,96,4,740,460,P,1,<rshift>,1,1,116850,423
19A,1,test,P,97,4,740,460,P,1,<rshift>,1,1,117839,401
19A,1,test,P,98,3,540,460,P,1,<rshift>,1,1,118850,359
19A,1,test,P,99,4,740,460,P,1,<rshift>,1,1,119853,408
19A,1,test,P,100,4,740,460,P,1,<rshift>,1,1,120843,434
19A,1,test,P,101,4,740,460,P,1,<rshift>,1,1,121851,385
19A,1,test,P,102,2,740,260,P,1,<rshift>,1,1,122848,371
19A,1,test,P,103,1,540,260,R,0,<rshift>,1,0,123852,353
19A,1,test,P,104,4,740,460,P,1,<rshift>,1,1,124848,347
19A,1,test,P,105,2,740,260,P,1,<rshift>,1,1,125850,333
19A,1,test,P,106,3,540,460,P,1,<rshift>,1,1,126851,362
19A,1,test,P,107,1,540,260,P,1,<rshift>,1,1,127850,357
19A,1,test,P,108,1,540,260,P,1,<rshift>,1,1,128851,485
19A,1,test,P,109,3,540,460,P,1,<rshift>,1,1,129852,533
19A,1,test,P,110,2,740,260,P,1,<rshift>,1,1,130852,481
19A,1,test,P,111,4,740,460,P,1,<rshift>,1,1,131851,434
19A,1,test,P,112,3,540,460,P,1,<rshift>,1,1,132852,462
19A,1,test,P,113,3,540,460,P,1,<rshift>,1,1,133850,473
19A,1,test,P,114,4,740,460,P,1,<rshift>,1,1,134852,417
19A,1,test,P,115,1,540,260,P,1,<rshift>,1,1,135849,361
19A,1,test,P,116,4,740,460,P,1,<rshift>,1,1,136850,392
19A,1,test,P,117,2,740,260,P,1,<rshift>,1,1,137839,414
19A,1,test,P,118,1,540,260,P,1,<rshift>,1,1,138849,446
19A,1,test,P,119,2,740,260,P,1,<rshift>,1,1,139851,404
19A,1,test,P,120,1,540,260,P,1,<rshift>,1,1,140836,389
19A,1,test,P,121,3,540,460,P,1,<rshift>,1,1,141852,400
19A,1,test,P,122,2,740,260,P,1,<rshift>,1,1,142850,421
19A,1,test,P,123,3,540,460,P,1,<rshift>,1,1,143850,419
19A,1,test,P,124,2,740,260,P,1,<rshift>,1,1,144839,447
19A,1,test,P,125,1,540,260,P,1,<rshift>,1,1,145849,412
19A,1,test,P,126,3,540,460,P,1,<rshift>,1,1,146847,366
19A,1,test,P,127,1,540,260,P,1,<rshift>,1,1,147850,402
19A,1,test,P,128,2,740,260,P,1,<rshift>,1,1,148852,417
19A,1,test,P,129,4,740,460,P,1,<rshift>,1,1,149854,435
19A,1,test,P,130,4,740,460,R,0,NONE,0,1,150847,954
19A,1,test,P,131,1,540,260,P,1,<rshift>,1,1,151852,351
19A,1,test,P,132,2,740,260,P,1,<rshift>,1,1,152856,370
19A,1,test,P,133,4,740,460,P,1,<rshift>,1,1,153851,346
19A,1,test,P,134,2,740,260,R,0,<rshift>,1,0,154847,314
19A,1,test,P,135,1,540,260,P,1,<rshift>,1,1,155851,373
19A,1,test,P,136,2,740,260,P,1,<rshift>,1,1,156852,364
19A,1,test,P,137,1,540,260,P,1,<rshift>,1,1,157849,416
19A,1,test,P,138,1,540,260,P,1,<rshift>,1,1,158851,474
19A,1,test,P,139,2,740,260,P,1,<rshift>,1,1,159850,395
19A,1,test,P,140,2,740,260,P,1,<rshift>,1,1,160849,351
19A,1,test,P,141,3,540,460,P,1,<rshift>,1,1,161848,620
19A,1,test,P,142,4,740,460,P,1,<rshift>,1,1,162852,362
19A,1,test,P,143,3,540,460,P,1,<rshift>,1,1,163849,354
19A,1,test,P,144,2,740,260,P,1,<rshift>,1,1,164851,372
19A,1,test,P,145,2,740,260,P,1,<rshift>,1,1,165851,348
19A,1,test,P,146,4,740,460,P,1,<rshift>,1,1,166851,411
19A,1,test,P,147,1,540,260,P,1,<rshift>,1,1,167849,381
19A,1,test,P,148,1,540,260,R,0,NONE,0,1,168855,953
19A,1,test,P,149,4,740,460,P,1,<rshift>,1,1,169847,276
19A,1,test,P,150,4,740,460,P,1,<rshift>,1,1,170852,360
19A,1,test,P,151,4,740,460,P,1,<rshift>,1,1,171853,399
19A,1,test,P,152,2,740,260,P,1,<rshift>,1,1,172849,399
19A,1,test,P,153,2,740,260,P,1,<rshift>,1,1,173849,363
19A,1,test,P,154,4,740,460,R,0,NONE,0,1,174851,953
19A,1,test,P,155,1,540,260,P,1,<rshift>,1,1,175854,278
19A,1,test,P,156,2,740,260,P,1,<rshift>,1,1,176851,319
19A,1,test,P,157,4,740,460,P,1,<rshift>,1,1,177849,330
19A,1,test,P,158,1,540,260,P,1,<rshift>,1,1,178854,289
19A,1,test,P,159,4,740,460,P,1,<rshift>,1,1,179852,277
19A,1,test,P,160,4,740,460,P,1,<rshift>,1,1,180849,327
19A,1,test,P,161,1,540,260,P,1,<rshift>,1,1,181838,318
19A,1,test,P,162,1,540,260,R,0,<rshift>,1,0,182844,316
19A,1,test,P,163,3,540,460,P,1,<rshift>,1,1,183851,416
19A,1,test,P,164,3,540,460,P,1,<rshift>,1,1,184855,433
19A,1,test,P,165,2,740,260,P,1,<rshift>,1,1,185851,343
19A,1,test,P,166,3,540,460,P,1,<rshift>,1,1,186852,463
19A,1,test,P,167,3,540,460,P,1,<rshift>,1,1,187849,349
19A,1,test,P,168,4,740,460,P,1,<rshift>,1,1,188852,430
19A,1,test,P,169,2,740,260,P,1,<rshift>,1,1,189853,412
19A,1,test,P,170,1,540,260,P,1,<rshift>,1,1,190849,344
19A,1,test,P,171,3,540,460,P,1,<rshift>,1,1,191848,350
19A,1,test,P,172,4,740,460,R,0,<rshift>,1,0,192840,364
19A,1,test,P,173,2,740,260,R,0,<rshift>,1,0,193852,573
19A,1,test,P,174,4,740,460,P,1,<rshift>,1,1,194852,458
19A,1,test,P,175,3,540,460,P,1,<rshift>,1,1,195852,386
19A,1,test,P,176,2,740,260,P,1,<rshift>,1,1,196849,343
19A,1,test,P,177,2,740,260,R,0,<rshift>,1,0,197851,337
19A,1,test,P,178,4,740,460,R,0,NONE,0,1,198850,953
19A,1,test,P,179,2,740,260,P,1,<rshift>,1,1,199849,336
19A,1,test,P,180,4,740,460,P,1,<rshift>,1,1,200845,426
19A,1,test,P,181,4,740,460,P,1,<rshift>,1,1,201853,441
19A,1,test,P,182,4,740,460,P,1,<rshift>,1,1,202850,550
19A,1,test,P,183,4,740,460,P,1,<rshift>,1,1,203849,426
19A,1,test,P,184,1,540,260,R,0,NONE,0,1,204846,953
19A,1,test,P,185,2,740,260,P,1,<rshift>,1,1,205851,306
19A,1,test,P,186,4,740,460,R,0,NONE,0,1,206850,953
19A,1,test,P,187,1,540,260,R,0,<rshift>,1,0,207853,320
19A,1,test,P,188,3,540,460,P,1,<rshift>,1,1,208854,449
19A,1,test,P,189,2,740,260,P,1,<rshift>,1,1,209853,343
19A,1,test,P,190,2,740,260,P,1,<rshift>,1,1,210852,484
19A,1,test,P,191,2,740,260,P,1,<rshift>,1,1,211853,458
19A,1,test,P,192,4,740,460,R,0,NONE,0,1,212848,955
19A,1,test,P,193,1,540,260,P,1,<rshift>,1,1,213853,286
19A,1,test,P,194,2,740,260,P,1,<rshift>,1,1,214853,409
19A,1,test,P,195,1,540,260,P,1,<rshift>,1,1,215849,367
19A,1,test,P,196,3,540,460,P,1,<rshift>,1,1,216852,440
19A,1,test,P,197,1,540,260,R,0,NONE,0,1,217852,951
19A,1,test,P,198,1,540,260,P,1,<rshift>,1,1,218851,359
19A,1,test,P,199,2,740,260,P,1,<rshift>,1,1,219850,370
19A,1,test,P,200,4,740,460,P,1,<rshift>,1,1,220846,334
19A,1,test,P,201,1,540,260,P,1,<rshift>,1,1,221849,411
19A,1,test,P,202,3,540,460,P,1,<rshift>,1,1,222844,454
19A,1,test,P,203,1,540,260,P,1,<rshift>,1,1,223851,543
19A,1,test,P,204,2,740,260,P,1,<rshift>,1,1,224849,428
19A,1,test,P,205,1,540,260,R,0,NONE,0,1,225849,953
19A,1,test,P,206,3,540,460,P,1,<rshift>,1,1,226851,336
19A,1,test,P,207,2,740,260,R,0,NONE,0,1,227848,954
19A,1,test,P,208,4,740,460,P,1,<rshift>,1,1,228854,302
19A,1,test,P,209,1,540,260,R,0,NONE,0,1,229846,953
19A,1,test,P,210,3,540,460,P,1,<rshift>,1,1,230849,338
19A,1,test,P,211,4,740,460,P,1,<rshift>,1,1,231852,431
19A,1,test,P,212,1,540,260,P,1,<rshift>,1,1,232852,373
19A,1,test,P,213,4,740,460,R,0,<rshift>,1,0,233850,356
19A,1,test,P,214,2,740,260,R,0,NONE,0,1,234848,954
19A,1,test,P,215,1,540,260,R,0,NONE,0,1,235850,952
19A,1,test,P,216,1,540,260,P,1,<rshift>,1,1,236853,483
19A,1,test,P,217,1,540,260,P,1,<rshift>,1,1,237851,326
19A,1,test,P,218,2,740,260,P,1,<rshift>,1,1,238852,376
19A,1,test,P,219,4,740,460,P,1,<rshift>,1,1,239847,358
19A,1,test,P,220,4,740,460,R,0,<rshift>,1,0,240853,349
19A,1,test,P,221,3,540,460,P,1,<rshift>,1,1,241850,532
19A,1,test,P,222,1,540,260,P,1,<rshift>,1,1,242851,334
19A,1,test,P,223,4,740,460,P,1,<rshift>,1,1,243852,364
19A,1,test,P,224,1,540,260,R,0,<rshift>,1,0,244849,345
19A,1,test,P,225,2,740,260,P,1,<rshift>,1,1,245849,371
19A,1,test,P,226,2,740,260,P,1,<rshift>,1,1,246846,368
19A,1,test,P,227,4,740,460,P,1,<rshift>,1,1,247839,413
19A,1,test,P,228,4,740,460,P,1,<rshift>,1,1,248854,411
19A,1,test,P,229,1,540,260,P,1,<rshift>,1,1,249850,356
19A,1,test,P,230,3,540,460,P,1,<rshift>,1,1,250853,468
19A,1,test,P,231,3,540,460,P,1,<rshift>,1,1,251856,454
19A,1,test,P,232,4,740,460,R,0,NONE,0,1,252852,952
19A,1,test,P,233,1,540,260,P,1,<rshift>,1,1,253849,322
19A,1,test,P,234,3,540,460,P,1,<rshift>,1,1,254851,393
19A,1,test,P,235,3,540,460,P,1,<rshift>,1,1,255848,351
19A,1,test,P,236,4,740,460,P,1,<rshift>,1,1,256847,441
19A,1,test,P,237,2,740,260,P,1,<rshift>,1,1,257852,426
19A,1,test,P,238,1,540,260,P,1,<rshift>,1,1,258848,406
19A,1,test,P,239,4,740,460,P,1,<rshift>,1,1,259850,453
19A,1,test,P,240,3,540,460,P,1,<rshift>,1,1,260850,537
19A,1,test,P,241,1,540,260,P,1,<rshift>,1,1,261846,371
19A,1,test,P,242,3,540,460,P,1,<rshift>,1,1,262848,393
19A,1,test,P,243,2,740,260,R,0,<rshift>,1,0,263853,362
19A,1,test,P,244,1,540,260,P,1,<rshift>,1,1,264851,334
19A,1,test,P,245,2,740,260,P,1,<rshift>,1,1,265850,390
19A,1,test,P,246,4,740,460,P,1,<rshift>,1,1,266851,402
19A,1,test,P,247,3,540,460,P,1,<rshift>,1,1,267848,416
19A,1,test,P,248,3,540,460,P,1,<rshift>,1,1,268848,558
19A,1,test,P,249,2,740,260,P,1,<rshift>,1,1,269851,388
19A,1,test,P,250,2,740,260,R,0,NONE,0,1,270848,953
19A,1,test,P,251,2,740,260,P,1,<rshift>,1,1,271849,276
19A,1,test,P,252,2,740,260,P,1,<rshift>,1,1,272848,357
19A,1,test,P,253,3,540,460,R,0,<rshift>,1,0,273850,404
19A,1,test,P,254,4,740,460,P,1,<rshift>,1,1,274851,385
19A,1,test,P,255,1,540,260,P,1,<rshift>,1,1,275849,454
19A,1,test,P,256,4,740,460,P,1,<rshift>,1,1,276848,355
19A,1,test,P,257,3,540,460,P,1,<rshift>,1,1,277850,361
19A,1,test,P,258,2,740,260,R,0,<rshift>,1,0,278852,365
19A,1,test,P,259,4,740,460,R,0,<rshift>,1,0,279848,408
19A,1,test,P,260,4,740,460,P,1,<rshift>,1,1,280849,345
19A,1,test,P,261,2,740,260,R,0,NONE,0,1,281848,953
19A,1,test,P,262,3,540,460,P,1,<rshift>,1,1,282852,351
19A,1,test,P,263,2,740,260,P,1,<rshift>,1,1,283852,408
19A,1,test,P,264,3,540,460,P,1,<rshift>,1,1,284849,572
19A,1,test,P,265,4,740,460,P,1,<rshift>,1,1,285850,438
19A,1,test,P,266,4,740,460,P,1,<rshift>,1,1,286848,421
19A,1,test,P,267,3,540,460,P,1,<rshift>,1,1,287854,419
19A,1,test,P,268,3,540,460,P,1,<rshift>,1,1,288854,439
19A,1,test,P,269,3,540,460,P,1,<rshift>,1,1,289853,402
19A,1,test,P,270,2,740,260,P,1,<rshift>,1,1,290849,544
19A,1,test,P,271,2,740,260,P,1,<rshift>,1,1,291852,421
19A,1,test,P,272,3,540,460,P,1,<rshift>,1,1,292853,454
19A,1,test,P,273,1,540,260,R,0,<rshift>,1,0,293853,442
19A,1,test,P,274,2,740,260,P,1,<rshift>,1,1,294853,395
19A,1,test,P,275,1,540,260,R,0,NONE,0,1,295847,954
19A,1,test,P,276,3,540,460,R,0,NONE,0,1,296853,953
19A,1,test,P,277,4,740,460,R,0,<rshift>,1,0,297852,365
19A,1,test,P,278,2,740,260,P,1,<rshift>,1,1,298848,305
19A,1,test,P,279,4,740,460,P,1,<rshift>,1,1,299852,396
19A,1,test,P,280,1,540,260,P,1,<rshift>,1,1,300837,332
19A,1,test,P,281,1,540,260,P,1,<rshift>,1,1,301837,446
19A,1,test,P,282,3,540,460,R,0,NONE,0,1,302838,951
19A,1,test,P,283,2,740,260,P,1,<rshift>,1,1,303853,452
19A,1,test,P,284,4,740,460,P,1,<rshift>,1,1,304854,356
19A,1,test,P,285,2,740,260,P,1,<rshift>,1,1,305849,377
19A,1,test,P,286,1,540,260,P,1,<rshift>,1,1,306851,390
19A,1,test,P,287,2,740,260,R,0,NONE,0,1,307852,953
19A,1,test,P,288,4,740,460,R,0,<rshift>,1,0,308853,490
19A,1,test,P,289,4,740,460,P,1,<rshift>,1,1,309850,373
19A,1,test,P,290,2,740,260,P,1,<rshift>,1,1,310850,477
19A,1,test,P,291,4,740,460,P,1,<rshift>,1,1,311850,466
19A,1,test,P,292,2,740,260,P,1,<rshift>,1,1,312844,405
19A,1,test,P,293,4,740,460,P,1,<rshift>,1,1,313849,437
19A,1,test,P,294,3,540,460,R,0,NONE,0,1,314852,952
19A,1,test,P,295,2,740,260,P,1,<rshift>,1,1,315851,315
19A,1,test,P,296,2,740,260,P,1,<rshift>,1,1,316849,412
19A,1,test,P,297,2,740,260,R,0,NONE,0,1,317853,954
19A,1,test,P,298,3,540,460,P,1,<rshift>,1,1,318851,392
19A,1,test,P,299,1,540,260,P,1,<rshift>,1,1,319849,365
19A,1,test,P,300,2,740,260,P,1,<rshift>,1,1,320848,362
19A,2,practice,R,1,4,740,460,R,1,NONE,0,0,388662,952
19A,2,practice,R,2,3,540,460,P,0,NONE,0,1,390710,954
19A,2,practice,R,3,1,540,260,R,1,<rshift>,1,1,391696,646
19A,2,practice,R,4,3,540,460,R,1,<rshift>,1,1,392383,481
19A,2,practice,R,5,4,740,460,R,1,<rshift>,1,1,392927,450
19A,2,practice,R,6,4,740,460,P,0,NONE,0,1,393664,954
19A,2,practice,R,7,3,540,460,R,1,<rshift>,1,1,394658,356
19A,2,practice,R,8,4,740,460,R,1,<rshift>,1,1,395666,359
19A,2,practice,R,9,4,740,460,R,1,<rshift>,1,1,396668,349
19A,2,practice,R,10,1,540,260,R,1,<rshift>,1,1,397662,346
19A,3,test,R,1,3,540,460,P,0,NONE,0,1,401663,953
19A,3,test,R,2,4,740,460,R,1,<rshift>,1,1,402666,401
19A,3,test,R,3,1,540,260,R,1,<rshift>,1,1,403653,322
19A,3,test,R,4,1,540,260,R,1,<rshift>,1,1,404667,338
19A,3,test,R,5,3,540,460,R,1,<rshift>,1,1,405668,432
19A,3,test,R,6,4,740,460,R,1,<rshift>,1,1,406664,361
19A,3,test,R,7,3,540,460,R,1,<rshift>,1,1,407666,459
19A,3,test,R,8,2,740,260,R,1,<rshift>,1,1,408665,389
19A,3,test,R,9,1,540,260,P,0,NONE,0,1,409665,952
19A,3,test,R,10,2,740,260,R,1,<rshift>,1,1,410669,292
19A,3,test,R,11,4,740,460,R,1,<rshift>,1,1,411666,343
19A,3,test,R,12,2,740,260,R,1,<rshift>,1,1,412667,432
19A,3,test,R,13,2,740,260,R,1,<rshift>,1,1,413663,398
19A,3,test,R,14,1,540,260,R,1,<rshift>,1,1,414668,475
19A,3,test,R,15,2,740,260,R,1,<rshift>,1,1,415666,416
19A,3,test,R,16,3,540,460,R,1,<rshift>,1,1,416666,410
19A,3,test,R,17,4,740,460,R,1,<rshift>,1,1,417666,412
19A,3,test,R,18,3,540,460,P,0,NONE,0,1,418665,953
19A,3,test,R,19,2,740,260,R,1,<rshift>,1,1,419659,348
19A,3,test,R,20,2,740,260,R,1,<rshift>,1,1,420662,390
19A,3,test,R,21,2,740,260,R,1,<rshift>,1,1,421661,380
19A,3,test,R,22,1,540,260,R,1,<rshift>,1,1,422653,377
19A,3,test,R,23,1,540,260,R,1,<rshift>,1,1,423656,554
19A,3,test,R,24,3,540,460,R,1,<rshift>,1,1,424667,346
19A,3,test,R,25,2,740,260,R,1,<rshift>,1,1,425667,417
19A,3,test,R,26,2,740,260,R,1,<rshift>,1,1,426668,373
19A,3,test,R,27,3,540,460,R,1,<rshift>,1,1,427669,413
19A,3,test,R,28,2,740,260,R,1,<rshift>,1,1,428666,392
19A,3,test,R,29,4,740,460,R,1,<rshift>,1,1,429665,534
19A,3,test,R,30,4,740,460,P,0,NONE,0,1,430662,953
19A,3,test,R,31,1,540,260,P,0,<rshift>,1,0,431667,309
19A,3,test,R,32,4,740,460,R,1,<rshift>,1,1,432668,362
19A,3,test,R,33,1,540,260,R,1,<rshift>,1,1,433664,369
19A,3,test,R,34,4,740,460,R,1,<rshift>,1,1,434666,375
19A,3,test,R,35,3,540,460,P,0,<rshift>,1,0,435663,368
19A,3,test,R,36,2,740,260,R,1,<rshift>,1,1,436666,383
19A,3,test,R,37,3,540,460,P,0,<rshift>,1,0,437664,450
19A,3,test,R,38,4,740,460,R,1,<rshift>,1,1,438667,366
19A,3,test,R,39,3,540,460,R,1,<rshift>,1,1,439669,414
19A,3,test,R,40,1,540,260,R,1,<rshift>,1,1,440669,535
19A,3,test,R,41,3,540,460,R,1,<rshift>,1,1,441665,378
19A,3,test,R,42,2,740,260,R,1,<rshift>,1,1,442669,331
19A,3,test,R,43,4,740,460,R,1,<rshift>,1,1,443662,427
19A,3,test,R,44,1,540,260,R,1,<rshift>,1,1,444664,401
19A,3,test,R,45,2,740,260,P,0,NONE,0,1,445661,953
19A,3,test,R,46,2,740,260,R,1,<rshift>,1,1,446665,485
19A,3,test,R,47,3,540,460,R,1,<rshift>,1,1,447665,400
19A,3,test,R,48,3,540,460,R,1,<rshift>,1,1,448666,393
19A,3,test,R,49,4,740,460,R,1,<rshift>,1,1,449666,377
19A,3,test,R,50,4,740,460,R,1,<rshift>,1,1,450664,352
19A,3,test,R,51,2,740,260,R,1,<rshift>,1,1,451665,328
19A,3,test,R,52,4,740,460,R,1,<rshift>,1,1,452665,324
19A,3,test,R,53,2,740,260,R,1,<rshift>,1,1,453661,302
19A,3,test,R,54,3,540,460,R,1,<rshift>,1,1,454665,340
19A,3,test,R,55,2,740,260,R,1,<rshift>,1,1,455668,330
19A,3,test,R,56,4,740,460,R,1,<rshift>,1,1,456661,383
19A,3,test,R,57,3,540,460,R,1,<rshift>,1,1,457667,330
19A,3,test,R,58,1,540,260,R,1,<rshift>,1,1,458666,428
19A,3,test,R,59,2,740,260,R,1,<rshift>,1,1,459669,351
19A,3,test,R,60,3,540,460,P,0,<rshift>,1,0,460668,374
19A,3,test,R,61,2,740,260,R,1,<rshift>,1,1,461664,321
19A,3,test,R,62,1,540,260,R,1,<rshift>,1,1,462660,366
19A,3,test,R,63,4,740,460,P,0,<rshift>,1,0,463668,369
19A,3,test,R,64,3,540,460,R,1,<rshift>,1,1,464667,371
19A,3,test,R,65,2,740,260,R,1,<rshift>,1,1,465667,402
19A,3,test,R,66,1,540,260,R,1,<rshift>,1,1,466667,329
19A,3,test,R,67,4,740,460,R,1,<rshift>,1,1,467667,476
19A,3,test,R,68,2,740,260,R,1,<rshift>,1,1,468664,373
19A,3,test,R,69,1,540,260,P,0,NONE,0,1,469665,952
19A,3,test,R,70,3,540,460,P,0,NONE,0,1,470669,951
19A,3,test,R,71,2,740,260,R,1,<rshift>,1,1,471665,322
19A,3,test,R,72,2,740,260,R,1,<rshift>,1,1,472667,375
19A,3,test,R,73,1,540,260,R,1,<rshift>,1,1,473664,392
19A,3,test,R,74,2,740,260,R,1,<rshift>,1,1,474665,361
19A,3,test,R,75,1,540,260,R,1,<rshift>,1,1,475664,382
19A,3,test,R,76,2,740,260,R,1,<rshift>,1,1,476669,341
19A,3,test,R,77,4,740,460,R,1,<rshift>,1,1,477668,376
19A,3,test,R,78,4,740,460,R,1,<rshift>,1,1,478666,375
19A,3,test,R,79,1,540,260,R,1,<rshift>,1,1,479666,395
19A,3,test,R,80,2,740,260,R,1,<rshift>,1,1,480666,368
19A,3,test,R,81,3,540,460,R,1,<rshift>,1,1,481670,409
19A,3,test,R,82,3,540,460,R,1,<rshift>,1,1,482666,444
19A,3,test,R,83,1,540,260,R,1,<rshift>,1,1,483669,417
19A,3,test,R,84,2,740,260,R,1,<rshift>,1,1,484664,415
19A,3,test,R,85,1,540,260,R,1,<rshift>,1,1,485668,379
19A,3,test,R,86,1,540,260,R,1,<rshift>,1,1,486665,303
19A,3,test,R,87,2,740,260,R,1,<rshift>,1,1,487665,353
19A,3,test,R,88,3,540,460,R,1,<rshift>,1,1,488666,345
19A,3,test,R,89,4,740,460,R,1,<rshift>,1,1,489664,338
19A,3,test,R,90,4,740,460,R,1,<rshift>,1,1,490668,364
19A,3,test,R,91,2,740,260,R,1,<rshift>,1,1,491665,378
19A,3,test,R,92,2,740,260,R,1,<rshift>,1,1,492652,385
19A,3,test,R,93,1,540,260,R,1,<rshift>,1,1,493668,374
19A,3,test,R,94,2,740,260,R,1,<rshift>,1,1,494668,389
19A,3,test,R,95,4,740,460,R,1,<rshift>,1,1,495665,391
19A,3,test,R,96,1,540,260,R,1,<rshift>,1,1,496667,486
19A,3,test,R,97,4,740,460,P,0,NONE,0,1,497665,952
19A,3,test,R,98,4,740,460,P,0,<rshift>,1,0,498665,381
19A,3,test,R,99,3,540,460,R,1,<rshift>,1,1,499667,410
19A,3,test,R,100,3,540,460,P,0,NONE,0,1,500663,954
19A,3,test,R,101,3,540,460,P,0,NONE,0,1,501664,952
19A,3,test,R,102,1,540,260,P,0,NONE,0,1,502664,952
19A,3,test,R,103,1,540,260,R,1,<rshift>,1,1,503665,450
19A,3,test,R,104,4,740,460,R,1,<rshift>,1,1,504665,358
19A,3,test,R,105,3,540,460,R,1,<rshift>,1,1,505667,376
19A,3,test,R,106,2,740,260,R,1,<rshift>,1,1,506670,334
19A,3,test,R,107,2,740,260,R,1,<rshift>,1,1,507665,339
19A,3,test,R,108,1,540,260,P,0,NONE,0,1,508662,953
19A,3,test,R,109,2,740,260,P,0,NONE,0,1,509667,953
19A,3,test,R,110,3,540,460,R,1,<rshift>,1,1,510667,425
19A,3,test,R,111,1,540,260,R,1,<rshift>,1,1,511667,301
19A,3,test,R,112,1,540,260,P,0,NONE,0,1,512665,954
19A,3,test,R,113,3,540,460,R,1,<rshift>,1,1,513670,323
19A,3,test,R,114,4,740,460,R,1,<rshift>,1,1,514668,378
19A,3,test,R,115,2,740,260,R,1,<rshift>,1,1,515664,388
19A,3,test,R,116,4,740,460,R,1,<rshift>,1,1,516668,416
19A,3,test,R,117,3,540,460,R,1,<rshift>,1,1,517666,367
19A,3,test,R,118,1,540,260,R,1,<rshift>,1,1,518666,324
19A,3,test,R,119,1,540,260,R,1,<rshift>,1,1,519665,478
19A,3,test,R,120,2,740,260,R,1,<rshift>,1,1,520663,341
19A,3,test,R,121,2,740,260,R,1,<rshift>,1,1,521663,431
19A,3,test,R,122,3,540,460,P,0,NONE,0,1,522657,952
19A,3,test,R,123,2,740,260,R,1,<rshift>,1,1,523667,371
19A,3,test,R,124,4,740,460,R,1,<rshift>,1,1,524666,335
19A,3,test,R,125,1,540,260,R,1,<rshift>,1,1,525667,356
19A,3,test,R,126,4,740,460,P,0,NONE,0,1,526666,953
19A,3,test,R,127,2,740,260,R,1,<rshift>,1,1,527661,318
19A,3,test,R,128,3,540,460,R,1,<rshift>,1,1,528666,285
19A,3,test,R,129,1,540,260,R,1,<rshift>,1,1,529665,322
19A,3,test,R,130,1,540,260,P,0,<rshift>,1,0,530669,342
19A,3,test,R,131,4,740,460,P,0,<rshift>,1,0,531667,325
19A,3,test,R,132,1,540,260,R,1,<rshift>,1,1,532667,463
19A,3,test,R,133,3,540,460,R,1,<rshift>,1,1,533665,439
19A,3,test,R,134,2,740,260,R,1,<rshift>,1,1,534666,345
19A,3,test,R,135,3,540,460,P,0,NONE,0,1,535667,953
19A,3,test,R,136,3,540,460,R,1,<rshift>,1,1,536668,412
19A,3,test,R,137,1,540,260,R,1,<rshift>,1,1,537666,378
19A,3,test,R,138,1,540,260,R,1,<rshift>,1,1,538666,354
19A,3,test,R,139,4,740,460,P,0,NONE,0,1,539667,953
19A,3,test,R,140,3,540,460,R,1,<rshift>,1,1,540662,339
19A,3,test,R,141,2,740,260,R,1,<rshift>,1,1,541672,401
19A,3,test,R,142,3,540,460,R,1,<rshift>,1,1,542656,455
19A,3,test,R,143,3,540,460,R,1,<rshift>,1,1,543661,394
19A,3,test,R,144,3,540,460,R,1,<rshift>,1,1,544670,359
19A,3,test,R,145,2,740,260,R,1,<rshift>,1,1,545669,388
19A,3,test,R,146,3,540,460,R,1,<rshift>,1,1,546666,383
19A,3,test,R,147,2,740,260,R,1,<rshift>,1,1,547659,381
19A,3,test,R,148,2,740,260,R,1,<rshift>,1,1,548666,397
19A,3,test,R,149,4,740,460,R,1,<rshift>,1,1,549651,395
19A,3,test,R,150,4,740,460,P,0,NONE,0,1,550664,952
19A,3,test,R,151,4,740,460,R,1,<rshift>,1,1,551668,485
19A,3,test,R,152,4,740,460,R,1,<rshift>,1,1,552654,353
19A,3,test,R,153,3,540,460,R,1,<rshift>,1,1,553666,351
19A,3,test,R,154,1,540,260,R,1,<rshift>,1,1,554666,348
19A,3,test,R,155,3,540,460,R,1,<rshift>,1,1,555667,439
19A,3,test,R,156,4,740,460,P,0,<rshift>,1,0,556666,382
19A,3,test,R,157,2,740,260,P,0,<rshift>,1,0,557665,303
19A,3,test,R,158,3,540,460,R,1,<rshift>,1,1,558668,321
19A,3,test,R,159,1,540,260,R,1,<rshift>,1,1,559665,306
19A,3,test,R,160,3,540,460,R,1,<rshift>,1,1,560665,343
19A,3,test,R,161,3,540,460,P,0,NONE,0,1,561668,952
19A,3,test,R,162,4,740,460,R,1,<rshift>,1,1,562667,372
19A,3,test,R,163,1,540,260,P,0,NONE,0,1,563662,953
19A,3,test,R,164,2,740,260,R,1,<rshift>,1,1,564663,347
19A,3,test,R,165,3,540,460,R,1,<rshift>,1,1,565667,403
19A,3,test,R,166,1,540,260,R,1,<rshift>,1,1,566664,339
19A,3,test,R,167,1,540,260,P,0,NONE,0,1,567664,953
19A,3,test,R,168,4,740,460,R,1,<rshift>,1,1,568665,356
19A,3,test,R,169,4,740,460,R,1,<rshift>,1,1,569666,362
19A,3,test,R,170,1,540,260,P,0,NONE,0,1,570667,954
19A,3,test,R,171,2,740,260,R,1,<rshift>,1,1,571665,304
19A,3,test,R,172,3,540,460,R,1,<rshift>,1,1,572667,349
19A,3,test,R,173,2,740,260,R,1,<rshift>,1,1,573658,344
19A,3,test,R,174,3,540,460,R,1,<rshift>,1,1,574668,373
19A,3,test,R,175,2,740,260,R,1,<rshift>,1,1,575666,356
19A,3,test,R,176,4,740,460,R,1,<rshift>,1,1,576663,355
19A,3,test,R,177,2,740,260,R,1,<rshift>,1,1,577665,339
19A,3,test,R,178,4,740,460,R,1,<rshift>,1,1,578664,346
19A,3,test,R,179,1,540,260,R,1,<rshift>,1,1,579666,426
19A,3,test,R,180,1,540,260,R,1,<rshift>,1,1,580669,331
19A,3,test,R,181,4,740,460,R,1,<rshift>,1,1,581669,312
19A,3,test,R,182,2,740,260,P,0,<rshift>,1,0,582654,396
19A,3,test,R,183,3,540,460,R,1,<rshift>,1,1,583667,385
19A,3,test,R,184,2,740,260,R,1,<rshift>,1,1,584665,478
19A,3,test,R,185,4,740,460,R,1,<rshift>,1,1,585669,375
19A,3,test,R,186,4,740,460,R,1,<rshift>,1,1,586668,405
19A,3,test,R,187,1,540,260,P,0,<rshift>,1,0,587671,357
19A,3,test,R,188,2,740,260,R,1,<rshift>,1,1,588667,301
19A,3,test,R,189,4,740,460,R,1,<rshift>,1,1,589668,352
19A,3,test,R,190,3,540,460,R,1,<rshift>,1,1,590668,385
19A,3,test,R,191,2,740,260,P,0,NONE,0,1,591650,953
19A,3,test,R,192,3,540,460,R,1,<rshift>,1,1,592661,353
19A,3,test,R,193,4,740,460,R,1,<rshift>,1,1,593668,346
19A,3,test,R,194,4,740,460,R,1,<rshift>,1,1,594666,361
19A,3,test,R,195,4,740,460,R,1,<rshift>,1,1,595663,394
19A,3,test,R,196,4,740,460,R,1,<rshift>,1,1,596664,447
19A,3,test,R,197,2,740,260,P,0,NONE,0,1,597669,954
19A,3,test,R,198,4,740,460,R,1,<rshift>,1,1,598669,304
19A,3,test,R,199,3,540,460,P,0,NONE,0,1,599666,954
19A,3,test,R,200,2,740,260,R,1,<rshift>,1,1,600665,441
19A,3,test,R,201,2,740,260,R,1,<rshift>,1,1,601666,318
19A,3,test,R,202,4,740,460,R,1,<rshift>,1,1,602667,393
19A,3,test,R,203,1,540,260,R,1,<rshift>,1,1,603666,422
19A,3,test,R,204,1,540,260,R,1,<rshift>,1,1,604668,367
19A,3,test,R,205,4,740,460,R,1,<rshift>,1,1,605667,431
19A,3,test,R,206,4,740,460,R,1,<rshift>,1,1,606665,406
19A,3,test,R,207,2,740,260,R,1,<rshift>,1,1,607666,413
19A,3,test,R,208,1,540,260,R,1,<rshift>,1,1,608669,453
19A,3,test,R,209,1,540,260,R,1,<rshift>,1,1,609666,483
19A,3,test,R,210,2,740,260,R,1,<rshift>,1,1,610670,489
19A,3,test,R,211,2,740,260,R,1,<rshift>,1,1,611667,493
19A,3,test,R,212,4,740,460,R,1,<rshift>,1,1,612664,466
19A,3,test,R,213,4,740,460,R,1,<rshift>,1,1,613651,410
19A,3,test,R,214,3,540,460,R,1,<rshift>,1,1,614669,371
19A,3,test,R,215,1,540,260,R,1,<rshift>,1,1,615670,344
19A,3,test,R,216,2,740,260,R,1,<rshift>,1,1,616668,327
19A,3,test,R,217,2,740,260,R,1,<rshift>,1,1,617664,349
19A,3,test,R,218,2,740,260,R,1,<rshift>,1,1,618667,441
19A,3,test,R,219,3,540,460,P,0,<rshift>,1,0,619666,406
19A,3,test,R,220,2,740,260,R,1,<rshift>,1,1,620666,327
19A,3,test,R,221,4,740,460,R,1,<rshift>,1,1,621668,393
19A,3,test,R,222,4,740,460,P,0,NONE,0,1,622666,953
19A,3,test,R,223,4,740,460,P,0,NONE,0,1,623668,952
19A,3,test,R,224,2,740,260,P,0,<rshift>,1,0,624661,336
19A,3,test,R,225,3,540,460,P,0,NONE,0,1,625664,953
19A,3,test,R,226,3,540,460,R,1,<rshift>,1,1,626665,359
19A,3,test,R,227,1,540,260,P,0,NONE,0,1,627665,953
19A,3,test,R,228,2,740,260,P,0,<rshift>,1,0,628672,302
19A,3,test,R,229,3,540,460,R,1,<rshift>,1,1,629657,437
19A,3,test,R,230,1,540,260,R,1,<rshift>,1,1,630664,581
19A,3,test,R,231,4,740,460,R,1,<rshift>,1,1,631664,373
19A,3,test,R,232,1,540,260,P,0,NONE,0,1,632666,953
19A,3,test,R,233,1,540,260,P,0,NONE,0,1,633665,952
19A,3,test,R,234,3,540,460,P,0,NONE,0,1,634664,954
19A,3,test,R,235,4,740,460,R,1,<rshift>,1,1,635666,365
19A,3,test,R,236,2,740,260,R,1,<rshift>,1,1,636667,360
19A,3,test,R,237,3,540,460,R,1,<rshift>,1,1,637669,411
19A,3,test,R,238,3,540,460,R,1,<rshift>,1,1,638669,417
19A,3,test,R,239,1,540,260,R,1,<rshift>,1,1,639667,427
19A,3,test,R,240,1,540,260,R,1,<rshift>,1,1,640662,451
19A,3,test,R,241,2,740,260,P,0,NONE,0,1,641663,952
19A,3,test,R,242,2,740,260,P,0,NONE,0,1,642655,953
19A,3,test,R,243,2,740,260,P,0,NONE,0,1,643656,953
19A,3,test,R,244,4,740,460,R,1,<rshift>,1,1,644659,337
19A,3,test,R,245,2,740,260,R,1,<rshift>,1,1,645665,595
19A,3,test,R,246,2,740,260,P,0,NONE,0,1,646665,953
19A,3,test,R,247,3,540,460,R,1,<rshift>,1,1,647664,352
19A,3,test,R,248,3,540,460,R,1,<rshift>,1,1,648667,363
19A,3,test,R,249,3,540,460,R,1,<rshift>,1,1,649667,360
19A,3,test,R,250,4,740,460,R,1,<rshift>,1,1,650666,373
19A,3,test,R,251,1,540,260,R,1,<rshift>,1,1,651664,351
19A,3,test,R,252,1,540,260,P,0,NONE,0,1,652666,952
19A,3,test,R,253,4,740,460,R,1,<rshift>,1,1,653663,374
19A,3,test,R,254,1,540,260,R,1,<rshift>,1,1,654664,368
19A,3,test,R,255,4,740,460,R,1,<rshift>,1,1,655663,358
19A,3,test,R,256,1,540,260,R,1,<rshift>,1,1,656661,362
19A,3,test,R,257,3,540,460,R,1,<rshift>,1,1,657666,377
19A,3,test,R,258,3,540,460,R,1,<rshift>,1,1,658666,376
19A,3,test,R,259,1,540,260,R,1,<rshift>,1,1,659664,398
19A,3,test,R,260,1,540,260,R,1,<rshift>,1,1,660663,356
19A,3,test,R,261,4,740,460,P,0,<rshift>,1,0,661653,341
19A,3,test,R,262,1,540,260,P,0,NONE,0,1,662652,952
19A,3,test,R,263,4,740,460,R,1,<rshift>,1,1,663653,360
19A,3,test,R,264,2,740,260,R,1,<rshift>,1,1,664666,326
19A,3,test,R,265,3,540,460,R,1,<rshift>,1,1,665664,358
19A,3,test,R,266,2,740,260,R,1,<rshift>,1,1,666666,337
19A,3,test,R,267,4,740,460,R,1,<rshift>,1,1,667663,396
19A,3,test,R,268,4,740,460,R,1,<rshift>,1,1,668665,550
19A,3,test,R,269,3,540,460,R,1,<rshift>,1,1,669669,627
19A,3,test,R,270,1,540,260,P,0,NONE,0,1,670668,951
19A,3,test,R,271,4,740,460,R,1,<rshift>,1,1,671669,329
19A,3,test,R,272,4,740,460,P,0,<rshift>,1,0,672658,400
19A,3,test,R,273,1,540,260,P,0,<rshift>,1,0,673661,414
19A,3,test,R,274,4,740,460,R,1,<rshift>,1,1,674669,425
19A,3,test,R,275,4,740,460,R,1,<rshift>,1,1,675667,374
19A,3,test,R,276,3,540,460,R,1,<rshift>,1,1,676669,338
19A,3,test,R,277,3,540,460,R,1,<rshift>,1,1,677668,357
19A,3,test,R,278,1,540,260,R,1,<rshift>,1,1,678666,479
19A,3,test,R,279,1,540,260,P,0,<rshift>,1,0,679663,398
19A,3,test,R,280,1,540,260,R,1,<rshift>,1,1,680664,376
19A,3,test,R,281,1,540,260,R,1,<rshift>,1,1,681663,430
19A,3,test,R,282,2,740,260,R,1,<rshift>,1,1,682665,436
19A,3,test,R,283,4,740,460,R,1,<rshift>,1,1,683666,426
19A,3,test,R,284,2,740,260,R,1,<rshift>,1,1,684665,371
19A,3,test,R,285,1,540,260,R,1,<rshift>,1,1,685670,443
19A,3,test,R,286,4,740,460,R,1,<rshift>,1,1,686666,369
19A,3,test,R,287,2,740,260,R,1,<rshift>,1,1,687670,444
19A,3,test,R,288,3,540,460,R,1,<rshift>,1,1,688670,420
19A,3,test,R,289,2,740,260,R,1,<rshift>,1,1,689665,432
19A,3,test,R,290,1,540,260,R,1,<rshift>,1,1,690664,469
19A,3,test,R,291,4,740,460,R,1,<rshift>,1,1,691666,378
19A,3,test,R,292,4,740,460,R,1,<rshift>,1,1,692666,380
19A,3,test,R,293,4,740,460,R,1,<rshift>,1,1,693668,397
19A,3,test,R,294,4,740,460,R,1,<rshift>,1,1,694667,453
19A,3,test,R,295,1,540,260,R,1,<rshift>,1,1,695665,459
19A,3,test,R,296,4,740,460,P,0,NONE,0,1,696665,952
19A,3,test,R,297,2,740,260,R,1,<rshift>,1,1,697664,471
19A,3,test,R,298,1,540,260,R,1,<rshift>,1,1,698667,409
19A,3,test,R,299,4,740,460,R,1,<rshift>,1,1,699665,362
19A,3,test,R,300,2,740,260,R,1,<rshift>,1,1,700666,333
