subnum,block,type,correctresponse,trial,choice,x,y,stim,present,response,responded,corr,starttime,rt
CONTROL_TS_10B,0,practice,P,1,3,540,460,P,1,NONE,0,0,575628,952
CONTROL_TS_10B,0,practice,P,2,2,740,260,P,1,NONE,0,0,577667,953
CONTROL_TS_10B,0,practice,P,3,4,740,460,P,1,NONE,0,0,579705,954
CONTROL_TS_10B,0,practice,P,4,2,740,260,P,1,<rshift>,1,1,581745,450
CONTROL_TS_10B,0,practice,P,5,1,540,260,P,1,<rshift>,1,1,582259,560
CONTROL_TS_10B,0,practice,P,6,2,740,260,R,0,NONE,0,1,582848,953
CONTROL_TS_10B,0,practice,P,7,3,540,460,P,1,<rshift>,1,1,583832,374
CONTROL_TS_10B,0,practice,P,8,1,540,260,P,1,<rshift>,1,1,584261,454
CONTROL_TS_10B,0,practice,P,9,2,740,260,R,0,NONE,0,1,584773,952
CONTROL_TS_10B,0,practice,P,10,2,740,260,P,1,<rshift>,1,1,585762,349
CONTROL_TS_10B,1,test,P,1,1,540,260,R,0,NONE,0,1,588999,953
CONTROL_TS_10B,1,test,P,2,3,540,460,P,1,<rshift>,1,1,590002,390
CONTROL_TS_10B,1,test,P,3,3,540,460,P,1,<rshift>,1,1,590998,368
CONTROL_TS_10B,1,test,P,4,4,740,460,P,1,<rshift>,1,1,592003,386
CONTROL_TS_10B,1,test,P,5,1,540,260,R,0,NONE,0,1,593003,952
CONTROL_TS_10B,1,test,P,6,4,740,460,R,0,NONE,0,1,594003,952
CONTROL_TS_10B,1,test,P,7,1,540,260,P,1,<rshift>,1,1,594999,411
CONTROL_TS_10B,1,test,P,8,1,540,260,R,0,NONE,0,1,596005,953
CONTROL_TS_10B,1,test,P,9,2,740,260,P,1,<rshift>,1,1,597002,442
CONTROL_TS_10B,1,test,P,10,4,740,460,R,0,NONE,0,1,598004,953
CONTROL_TS_10B,1,test,P,11,1,540,260,R,0,<rshift>,1,0,599001,328
CONTROL_TS_10B,1,test,P,12,3,540,460,P,1,<rshift>,1,1,600006,413
CONTROL_TS_10B,1,test,P,13,3,540,460,P,1,<rshift>,1,1,601001,447
CONTROL_TS_10B,1,test,P,14,1,540,260,R,0,NONE,0,1,602001,953
CONTROL_TS_10B,1,test,P,15,1,540,260,R,0,NONE,0,1,602990,953
CONTROL_TS_10B,1,test,P,16,2,740,260,P,1,<rshift>,1,1,604003,332
CONTROL_TS_10B,1,test,P,17,4,740,460,P,1,<rshift>,1,1,605008,416
CONTROL_TS_10B,1,test,P,18,4,740,460,P,1,<rshift>,1,1,606004,367
CONTROL_TS_10B,1,test,P,19,1,540,260,P,1,<rshift>,1,1,607002,461
CONTROL_TS_10B,1,test,P,20,1,540,260,P,1,<rshift>,1,1,608000,363
CONTROL_TS_10B,1,test,P,21,3,540,460,P,1,<rshift>,1,1,609007,353
CONTROL_TS_10B,1,test,P,22,2,740,260,R,0,NONE,0,1,610000,952
CONTROL_TS_10B,1,test,P,23,4,740,460,P,1,<rshift>,1,1,611006,405
CONTROL_TS_10B,1,test,P,24,3,540,460,P,1,<rshift>,1,1,612003,533
CONTROL_TS_10B,1,test,P,25,3,540,460,P,1,<rshift>,1,1,613005,532
CONTROL_TS_10B,1,test,P,26,3,540,460,R,0,NONE,0,1,614003,953
CONTROL_TS_10B,1,test,P,27,1,540,260,P,1,<rshift>,1,1,615002,356
CONTROL_TS_10B,1,test,P,28,3,540,460,P,1,<rshift>,1,1,615993,413
CONTROL_TS_10B,1,test,P,29,2,740,260,P,1,<rshift>,1,1,617002,553
CONTROL_TS_10B,1,test,P,30,2,740,260,P,1,<rshift>,1,1,618002,364
CONTROL_TS_10B,1,test,P,31,3,540,460,P,1,<rshift>,1,1,619006,360
CONTROL_TS_10B,1,test,P,32,2,740,260,P,1,<rshift>,1,1,620004,340
CONTROL_TS_10B,1,test,P,33,1,540,260,P,1,<rshift>,1,1,621002,330
CONTROL_TS_10B,1,test,P,34,2,740,260,P,1,<rshift>,1,1,622002,290
CONTROL_TS_10B,1,test,P,35,2,740,260,P,1,<rshift>,1,1,623008,302
CONTROL_TS_10B,1,test,P,36,3,540,460,P,1,<rshift>,1,1,624000,460
CONTROL_TS_10B,1,test,P,37,1,540,260,P,1,<rshift>,1,1,625002,337
CONTROL_TS_10B,1,test,P,38,3,540,460,P,1,<rshift>,1,1,626005,333
CONTROL_TS_10B,1,test,P,39,4,740,460,P,1,<rshift>,1,1,626998,359
CONTROL_TS_10B,1,test,P,40,3,540,460,P,1,<rshift>,1,1,628004,348
CONTROL_TS_10B,1,test,P,41,4,740,460,P,1,<rshift>,1,1,629005,360
CONTROL_TS_10B,1,test,P,42,4,740,460,P,1,<rshift>,1,1,630003,335
CONTROL_TS_10B,1,test,P,43,2,740,260,P,1,<rshift>,1,1,631004,345
CONTROL_TS_10B,1,test,P,44,1,540,260,P,1,<rshift>,1,1,632002,478
CONTROL_TS_10B,1,test,P,45,4,740,460,P,1,<rshift>,1,1,633003,352
CONTROL_TS_10B,1,test,P,46,3,540,460,P,1,<rshift>,1,1,634001,437
CONTROL_TS_10B,1,test,P,47,3,540,460,P,1,<rshift>,1,1,635001,535
CONTROL_TS_10B,1,test,P,48,3,540,460,P,1,<rshift>,1,1,636005,519
CONTROL_TS_10B,1,test,P,49,3,540,460,R,0,<rshift>,1,0,636990,332
CONTROL_TS_10B,1,test,P,50,1,540,260,P,1,<rshift>,1,1,637995,351
CONTROL_TS_10B,1,test,P,51,3,540,460,P,1,<rshift>,1,1,639001,368
CONTROL_TS_10B,1,test,P,52,3,540,460,P,1,<rshift>,1,1,640003,359
CONTROL_TS_10B,1,test,P,53,4,740,460,P,1,<rshift>,1,1,641003,318
CONTROL_TS_10B,1,test,P,54,4,740,460,P,1,<rshift>,1,1,642003,350
CONTROL_TS_10B,1,test,P,55,3,540,460,P,1,<rshift>,1,1,643002,324
CONTROL_TS_10B,1,test,P,56,1,540,260,P,1,<rshift>,1,1,644001,376
CONTROL_TS_10B,1,test,P,57,1,540,260,P,1,<rshift>,1,1,645003,370
CONTROL_TS_10B,1,test,P,58,2,740,260,P,1,<rshift>,1,1,645994,355
CONTROL_TS_10B,1,test,P,59,1,540,260,R,0,NONE,0,1,647002,952
CONTROL_TS_10B,1,test,P,60,2,740,260,P,1,<rshift>,1,1,648005,388
CONTROL_TS_10B,1,test,P,61,2,740,260,P,1,<rshift>,1,1,649002,357
CONTROL_TS_10B,1,test,P,62,4,740,460,P,1,<rshift>,1,1,650003,342
CONTROL_TS_10B,1,test,P,63,2,740,260,P,1,<rshift>,1,1,651003,355
CONTROL_TS_10B,1,test,P,64,4,740,460,P,1,<rshift>,1,1,652006,420
CONTROL_TS_10B,1,test,P,65,1,540,260,P,1,<rshift>,1,1,653002,465
CONTROL_TS_10B,1,test,P,66,3,540,460,R,0,<rshift>,1,0,654008,411
CONTROL_TS_10B,1,test,P,67,3,540,460,R,0,<rshift>,1,0,654999,377
CONTROL_TS_10B,1,test,P,68,2,740,260,P,1,<rshift>,1,1,656002,392
CONTROL_TS_10B,1,test,P,69,2,740,260,P,1,<rshift>,1,1,656989,384
CONTROL_TS_10B,1,test,P,70,1,540,260,P,1,<rshift>,1,1,657993,366
CONTROL_TS_10B,1,test,P,71,4,740,460,P,1,<rshift>,1,1,659002,339
CONTROL_TS_10B,1,test,P,72,3,540,460,R,0,<rshift>,1,0,660000,443
CONTROL_TS_10B,1,test,P,73,1,540,260,R,0,NONE,0,1,661005,953
CONTROL_TS_10B,1,test,P,74,4,740,460,R,0,NONE,0,1,662002,953
CONTROL_TS_10B,1,test,P,75,2,740,260,P,1,<rshift>,1,1,663002,355
CONTROL_TS_10B,1,test,P,76,2,740,260,R,0,NONE,0,1,664001,953
CONTROL_TS_10B,1,test,P,77,1,540,260,P,1,<rshift>,1,1,664994,446
CONTROL_TS_10B,1,test,P,78,2,740,260,P,1,<rshift>,1,1,666002,426
CONTROL_TS_10B,1,test,P,79,1,540,260,R,0,NONE,0,1,667002,953
CONTROL_TS_10B,1,test,P,80,1,540,260,P,1,<rshift>,1,1,668004,401
CONTROL_TS_10B,1,test,P,81,3,540,460,R,0,NONE,0,1,669003,952
CONTROL_TS_10B,1,test,P,82,1,540,260,P,1,<rshift>,1,1,670002,401
CONTROL_TS_10B,1,test,P,83,1,540,260,P,1,<rshift>,1,1,671005,399
CONTROL_TS_10B,1,test,P,84,2,740,260,P,1,<rshift>,1,1,672005,368
CONTROL_TS_10B,1,test,P,85,3,540,460,P,1,<rshift>,1,1,672993,535
CONTROL_TS_10B,1,test,P,86,1,540,260,R,0,NONE,0,1,674002,953
CONTROL_TS_10B,1,test,P,87,4,740,460,P,1,<rshift>,1,1,674999,373
CONTROL_TS_10B,1,test,P,88,1,540,260,P,1,<rshift>,1,1,675990,390
CONTROL_TS_10B,1,test,P,89,3,540,460,P,1,<rshift>,1,1,677001,411
CONTROL_TS_10B,1,test,P,90,2,740,260,P,1,<rshift>,1,1,678006,363
CONTROL_TS_10B,1,test,P,91,4,740,460,P,1,<rshift>,1,1,679001,340
CONTROL_TS_10B,1,test,P,92,3,540,460,P,1,<rshift>,1,1,679999,316
CONTROL_TS_10B,1,test,P,93,2,740,260,P,1,<rshift>,1,1,681005,392
CONTROL_TS_10B,1,test,P,94,3,540,460,P,1,<rshift>,1,1,681994,340
CONTROL_TS_10B,1,test,P,95,1,540,260,P,1,<rshift>,1,1,682992,334
CONTROL_TS_10B,1,test,P,96,3,540,460,P,1,<rshift>,1,1,684007,333
CONTROL_TS_10B,1,test,P,97,2,740,260,P,1,<rshift>,1,1,685004,321
CONTROL_TS_10B,1,test,P,98,3,540,460,P,1,<rshift>,1,1,685992,455
CONTROL_TS_10B,1,test,P,99,1,540,260,P,1,<rshift>,1,1,687004,356
CONTROL_TS_10B,1,test,P,100,3,540,460,R,0,NONE,0,1,688003,953
CONTROL_TS_10B,1,test,P,101,1,540,260,P,1,<rshift>,1,1,688999,384
CONTROL_TS_10B,1,test,P,102,3,540,460,P,1,<rshift>,1,1,690003,361
CONTROL_TS_10B,1,test,P,103,3,540,460,P,1,<rshift>,1,1,691005,443
CONTROL_TS_10B,1,test,P,104,1,540,260,R,0,<rshift>,1,0,692001,385
CONTROL_TS_10B,1,test,P,105,4,740,460,P,1,<rshift>,1,1,693006,428
CONTROL_TS_10B,1,test,P,106,4,740,460,P,1,<rshift>,1,1,694000,372
CONTROL_TS_10B,1,test,P,107,2,740,260,P,1,<rshift>,1,1,695000,342
CONTROL_TS_10B,1,test,P,108,2,740,260,P,1,<rshift>,1,1,696001,303
CONTROL_TS_10B,1,test,P,109,1,540,260,P,1,<rshift>,1,1,697003,385
CONTROL_TS_10B,1,test,P,110,3,540,460,P,1,<rshift>,1,1,698005,368
CONTROL_TS_10B,1,test,P,111,2,740,260,P,1,<rshift>,1,1,699004,323
CONTROL_TS_10B,1,test,P,112,2,740,260,P,1,<rshift>,1,1,700004,324
CONTROL_TS_10B,1,test,P,113,3,540,460,P,1,<rshift>,1,1,701003,370
CONTROL_TS_10B,1,test,P,114,2,740,260,R,0,NONE,0,1,702000,953
CONTROL_TS_10B,1,test,P,115,1,540,260,R,0,NONE,0,1,703004,953
CONTROL_TS_10B,1,test,P,116,2,740,260,P,1,<rshift>,1,1,704009,436
CONTROL_TS_10B,1,test,P,117,4,740,460,P,1,<rshift>,1,1,705002,372
CONTROL_TS_10B,1,test,P,118,2,740,260,R,0,NONE,0,1,705990,953
CONTROL_TS_10B,1,test,P,119,3,540,460,P,1,<rshift>,1,1,707004,388
CONTROL_TS_10B,1,test,P,120,3,540,460,P,1,<rshift>,1,1,708006,413
CONTROL_TS_10B,1,test,P,121,2,740,260,P,1,<rshift>,1,1,709004,476
CONTROL_TS_10B,1,test,P,122,1,540,260,P,1,<rshift>,1,1,709995,419
CONTROL_TS_10B,1,test,P,123,2,740,260,P,1,<rshift>,1,1,711001,328
CONTROL_TS_10B,1,test,P,124,4,740,460,P,1,<rshift>,1,1,711993,323
CONTROL_TS_10B,1,test,P,125,1,540,260,P,1,<rshift>,1,1,712989,337
CONTROL_TS_10B,1,test,P,126,4,740,460,P,1,<rshift>,1,1,713990,498
CONTROL_TS_10B,1,test,P,127,3,540,460,P,1,<rshift>,1,1,714992,523
CONTROL_TS_10B,1,test,P,128,1,540,260,P,1,<rshift>,1,1,715990,348
CONTROL_TS_10B,1,test,P,129,4,740,460,R,0,NONE,0,1,717002,953
CONTROL_TS_10B,1,test,P,130,4,740,460,P,1,<rshift>,1,1,717999,524
CONTROL_TS_10B,1,test,P,131,4,740,460,P,1,<rshift>,1,1,718997,402
CONTROL_TS_10B,1,test,P,132,4,740,460,P,1,<rshift>,1,1,719993,335
CONTROL_TS_10B,1,test,P,133,1,540,260,P,1,<rshift>,1,1,721005,437
CONTROL_TS_10B,1,test,P,134,1,540,260,R,0,NONE,0,1,721997,953
CONTROL_TS_10B,1,test,P,135,4,740,460,P,1,<rshift>,1,1,722994,303
CONTROL_TS_10B,1,test,P,136,4,740,460,P,1,<rshift>,1,1,723993,386
CONTROL_TS_10B,1,test,P,137,2,740,260,P,1,<rshift>,1,1,724997,457
CONTROL_TS_10B,1,test,P,138,1,540,260,P,1,<rshift>,1,1,725997,462
CONTROL_TS_10B,1,test,P,139,4,740,460,R,0,NONE,0,1,727001,953
CONTROL_TS_10B,1,test,P,140,1,540,260,P,1,<rshift>,1,1,727993,364
CONTROL_TS_10B,1,test,P,141,1,540,260,P,1,<rshift>,1,1,728994,355
CONTROL_TS_10B,1,test,P,142,2,740,260,P,1,<rshift>,1,1,729998,326
CONTROL_TS_10B,1,test,P,143,4,740,460,R,0,<rshift>,1,0,731000,312
CONTROL_TS_10B,1,test,P,144,4,740,460,P,1,<rshift>,1,1,732000,411
CONTROL_TS_10B,1,test,P,145,4,740,460,P,1,<rshift>,1,1,733001,346
CONTROL_TS_10B,1,test,P,146,2,740,260,P,1,<rshift>,1,1,734001,343
CONTROL_TS_10B,1,test,P,147,1,540,260,P,1,<rshift>,1,1,735002,361
CONTROL_TS_10B,1,test,P,148,3,540,460,R,0,NONE,0,1,736004,952
CONTROL_TS_10B,1,test,P,149,2,740,260,P,1,<rshift>,1,1,737002,345
CONTROL_TS_10B,1,test,P,150,1,540,260,P,1,<rshift>,1,1,737999,355
CONTROL_TS_10B,1,test,P,151,4,740,460,P,1,<rshift>,1,1,739002,345
CONTROL_TS_10B,1,test,P,152,2,740,260,P,1,<rshift>,1,1,740001,308
CONTROL_TS_10B,1,test,P,153,4,740,460,P,1,<rshift>,1,1,741002,354
CONTROL_TS_10B,1,test,P,154,1,540,260,P,1,<rshift>,1,1,742005,356
CONTROL_TS_10B,1,test,P,155,3,540,460,P,1,<rshift>,1,1,743007,500
CONTROL_TS_10B,1,test,P,156,3,540,460,P,1,<rshift>,1,1,744004,533
CONTROL_TS_10B,1,test,P,157,4,740,460,P,1,<rshift>,1,1,745000,366
CONTROL_TS_10B,1,test,P,158,2,740,260,P,1,<rshift>,1,1,746001,331
CONTROL_TS_10B,1,test,P,159,2,740,260,P,1,<rshift>,1,1,747002,328
CONTROL_TS_10B,1,test,P,160,3,540,460,R,0,<rshift>,1,0,748000,378
CONTROL_TS_10B,1,test,P,161,2,740,260,P,1,<rshift>,1,1,749005,400
CONTROL_TS_10B,1,test,P,162,1,540,260,P,1,<rshift>,1,1,750007,359
CONTROL_TS_10B,1,test,P,163,1,540,260,R,0,NONE,0,1,751004,953
CONTROL_TS_10B,1,test,P,164,2,740,260,P,1,<rshift>,1,1,752004,370
CONTROL_TS_10B,1,test,P,165,3,540,460,P,1,<rshift>,1,1,753006,501
CONTROL_TS_10B,1,test,P,166,1,540,260,P,1,<rshift>,1,1,754001,411
CONTROL_TS_10B,1,test,P,167,3,540,460,P,1,<rshift>,1,1,755001,532
CONTROL_TS_10B,1,test,P,168,2,740,260,R,0,NONE,0,1,756002,951
CONTROL_TS_10B,1,test,P,169,2,740,260,P,1,<rshift>,1,1,757004,397
CONTROL_TS_10B,1,test,P,170,2,740,260,P,1,<rshift>,1,1,758002,297
CONTROL_TS_10B,1,test,P,171,2,740,260,P,1,<rshift>,1,1,758999,297
CONTROL_TS_10B,1,test,P,172,3,540,460,P,1,<rshift>,1,1,759999,481
CONTROL_TS_10B,1,test,P,173,1,540,260,R,0,NONE,0,1,761001,952
CONTROL_TS_10B,1,test,P,174,1,540,260,P,1,<rshift>,1,1,762006,423
CONTROL_TS_10B,1,test,P,175,2,740,260,P,1,<rshift>,1,1,763000,343
CONTROL_TS_10B,1,test,P,176,1,540,260,R,0,<rshift>,1,0,764004,442
CONTROL_TS_10B,1,test,P,177,1,540,260,P,1,<rshift>,1,1,765002,394
CONTROL_TS_10B,1,test,P,178,1,540,260,P,1,<rshift>,1,1,765997,354
CONTROL_TS_10B,1,test,P,179,3,540,460,P,1,<rshift>,1,1,767000,537
CONTROL_TS_10B,1,test,P,180,4,740,460,P,1,<rshift>,1,1,768002,368
CONTROL_TS_10B,1,test,P,181,2,740,260,P,1,<rshift>,1,1,768998,361
CONTROL_TS_10B,1,test,P,182,4,740,460,P,1,<rshift>,1,1,770006,368
CONTROL_TS_10B,1,test,P,183,3,540,460,R,0,<rshift>,1,0,771007,379
CONTROL_TS_10B,1,test,P,184,3,540,460,P,1,<rshift>,1,1,772001,421
CONTROL_TS_10B,1,test,P,185,1,540,260,P,1,<rshift>,1,1,773003,335
CONTROL_TS_10B,1,test,P,186,1,540,260,P,1,<rshift>,1,1,774000,417
CONTROL_TS_10B,1,test,P,187,3,540,460,R,0,NONE,0,1,775001,954
CONTROL_TS_10B,1,test,P,188,1,540,260,P,1,<rshift>,1,1,775999,436
CONTROL_TS_10B,1,test,P,189,2,740,260,P,1,<rshift>,1,1,776999,381
CONTROL_TS_10B,1,test,P,190,1,540,260,P,1,<rshift>,1,1,778003,359
CONTROL_TS_10B,1,test,P,191,1,540,260,P,1,<rshift>,1,1,779000,372
CONTROL_TS_10B,1,test,P,192,1,540,260,P,1,<rshift>,1,1,780002,370
CONTROL_TS_10B,1,test,P,193,4,740,460,P,1,<rshift>,1,1,781002,338
CONTROL_TS_10B,1,test,P,194,3,540,460,P,1,<rshift>,1,1,782000,358
CONTROL_TS_10B,1,test,P,195,2,740,260,P,1,<rshift>,1,1,783011,325
CONTROL_TS_10B,1,test,P,196,1,540,260,P,1,<rshift>,1,1,784002,324
CONTROL_TS_10B,1,test,P,197,3,540,460,P,1,<rshift>,1,1,785000,494
CONTROL_TS_10B,1,test,P,198,1,540,260,P,1,<rshift>,1,1,786006,359
CONTROL_TS_10B,1,test,P,199,1,540,260,P,1,<rshift>,1,1,787001,389
CONTROL_TS_10B,1,test,P,200,1,540,260,R,0,<rshift>,1,0,788001,348
CONTROL_TS_10B,1,test,P,201,2,740,260,P,1,<rshift>,1,1,789004,327
CONTROL_TS_10B,1,test,P,202,3,540,460,P,1,<rshift>,1,1,790002,390
CONTROL_TS_10B,1,test,P,203,3,540,460,P,1,<rshift>,1,1,791002,430
CONTROL_TS_10B,1,test,P,204,3,540,460,R,0,NONE,0,1,792002,952
CONTROL_TS_10B,1,test,P,205,4,740,460,R,0,NONE,0,1,793004,953
CONTROL_TS_10B,1,test,P,206,2,740,260,P,1,<rshift>,1,1,793998,392
CONTROL_TS_10B,1,test,P,207,4,740,460,P,1,<rshift>,1,1,794999,347
CONTROL_TS_10B,1,test,P,208,2,740,260,P,1,<rshift>,1,1,795999,339
CONTROL_TS_10B,1,test,P,209,3,540,460,P,1,<rshift>,1,1,796999,349
CONTROL_TS_10B,1,test,P,210,1,540,260,P,1,<rshift>,1,1,798001,342
CONTROL_TS_10B,1,test,P,211,2,740,260,P,1,<rshift>,1,1,799003,332
CONTROL_TS_10B,1,test,P,212,3,540,460,R,0,NONE,0,1,800005,952
CONTROL_TS_10B,1,test,P,213,3,540,460,P,1,<rshift>,1,1,801005,447
CONTROL_TS_10B,1,test,P,214,3,540,460,P,1,<rshift>,1,1,802000,374
CONTROL_TS_10B,1,test,P,215,4,740,460,R,0,NONE,0,1,803000,955
CONTROL_TS_10B,1,test,P,216,3,540,460,P,1,<rshift>,1,1,804003,413
CONTROL_TS_10B,1,test,P,217,1,540,260,P,1,<rshift>,1,1,804999,436
CONTROL_TS_10B,1,test,P,218,1,540,260,P,1,<rshift>,1,1,806000,398
CONTROL_TS_10B,1,test,P,219,2,740,260,P,1,<rshift>,1,1,807006,348
CONTROL_TS_10B,1,test,P,220,2,740,260,R,0,<rshift>,1,0,807999,403
CONTROL_TS_10B,1,test,P,221,4,740,460,P,1,<rshift>,1,1,809002,374
CONTROL_TS_10B,1,test,P,222,1,540,260,P,1,<rshift>,1,1,810003,454
CONTROL_TS_10B,1,test,P,223,4,740,460,P,1,<rshift>,1,1,811001,575
CONTROL_TS_10B,1,test,P,224,3,540,460,P,1,<rshift>,1,1,811998,405
CONTROL_TS_10B,1,test,P,225,4,740,460,P,1,<rshift>,1,1,813001,536
CONTROL_TS_10B,1,test,P,226,4,740,460,R,0,NONE,0,1,814004,953
CONTROL_TS_10B,1,test,P,227,4,740,460,P,1,<rshift>,1,1,815003,473
CONTROL_TS_10B,1,test,P,228,1,540,260,P,1,<rshift>,1,1,816001,389
CONTROL_TS_10B,1,test,P,229,4,740,460,R,0,NONE,0,1,817002,954
CONTROL_TS_10B,1,test,P,230,4,740,460,R,0,NONE,0,1,817999,954
CONTROL_TS_10B,1,test,P,231,4,740,460,P,1,<rshift>,1,1,819000,417
CONTROL_TS_10B,1,test,P,232,2,740,260,P,1,<rshift>,1,1,820005,394
CONTROL_TS_10B,1,test,P,233,3,540,460,P,1,<rshift>,1,1,821000,393
CONTROL_TS_10B,1,test,P,234,1,540,260,P,1,<rshift>,1,1,822002,345
CONTROL_TS_10B,1,test,P,235,3,540,460,P,1,<rshift>,1,1,823000,371
CONTROL_TS_10B,1,test,P,236,2,740,260,P,1,<rshift>,1,1,824002,335
CONTROL_TS_10B,1,test,P,237,3,540,460,P,1,<rshift>,1,1,825002,572
CONTROL_TS_10B,1,test,P,238,4,740,460,R,0,NONE,0,1,825993,953
CONTROL_TS_10B,1,test,P,239,2,740,260,P,1,<rshift>,1,1,827003,403
CONTROL_TS_10B,1,test,P,240,2,740,260,P,1,<rshift>,1,1,828000,387
CONTROL_TS_10B,1,test,P,241,2,740,260,R,0,<rshift>,1,0,829005,316
CONTROL_TS_10B,1,test,P,242,4,740,460,P,1,<rshift>,1,1,829999,413
CONTROL_TS_10B,1,test,P,243,1,540,260,P,1,<rshift>,1,1,831001,414
CONTROL_TS_10B,1,test,P,244,2,740,260,R,0,<rshift>,1,0,832002,382
CONTROL_TS_10B,1,test,P,245,2,740,260,P,1,<rshift>,1,1,832999,435
CONTROL_TS_10B,1,test,P,246,1,540,260,P,1,<rshift>,1,1,834003,534
CONTROL_TS_10B,1,test,P,247,4,740,460,R,0,NONE,0,1,835000,952
CONTROL_TS_10B,1,test,P,248,3,540,460,P,1,<rshift>,1,1,836000,380
CONTROL_TS_10B,1,test,P,249,2,740,260,P,1,<rshift>,1,1,837004,365
CONTROL_TS_10B,1,test,P,250,2,740,260,R,0,NONE,0,1,838004,954
CONTROL_TS_10B,1,test,P,251,1,540,260,P,1,<rshift>,1,1,839003,412
CONTROL_TS_10B,1,test,P,252,1,540,260,P,1,<rshift>,1,1,840000,372
CONTROL_TS_10B,1,test,P,253,2,740,260,P,1,<rshift>,1,1,841000,367
CONTROL_TS_10B,1,test,P,254,3,540,460,P,1,<rshift>,1,1,841997,481
CONTROL_TS_10B,1,test,P,255,3,540,460,P,1,<rshift>,1,1,843002,456
CONTROL_TS_10B,1,test,P,256,4,740,460,R,0,NONE,0,1,843997,952
CONTROL_TS_10B,1,test,P,257,3,540,460,R,0,<rshift>,1,0,845000,390
CONTROL_TS_10B,1,test,P,258,3,540,460,P,1,<rshift>,1,1,845997,419
CONTROL_TS_10B,1,test,P,259,3,540,460,P,1,<rshift>,1,1,846999,540
CONTROL_TS_10B,1,test,P,260,2,740,260,P,1,<rshift>,1,1,848002,373
CONTROL_TS_10B,1,test,P,261,3,540,460,P,1,<rshift>,1,1,849004,342
CONTROL_TS_10B,1,test,P,262,2,740,260,R,0,NONE,0,1,850004,953
CONTROL_TS_10B,1,test,P,263,1,540,260,P,1,<rshift>,1,1,851005,434
CONTROL_TS_10B,1,test,P,264,4,740,460,P,1,<rshift>,1,1,852001,450
CONTROL_TS_10B,1,test,P,265,3,540,460,P,1,<rshift>,1,1,853000,439
CONTROL_TS_10B,1,test,P,266,3,540,460,R,0,NONE,0,1,854001,952
CONTROL_TS_10B,1,test,P,267,1,540,260,R,0,<rshift>,1,0,855001,389
CONTROL_TS_10B,1,test,P,268,4,740,460,P,1,<rshift>,1,1,856001,531
CONTROL_TS_10B,1,test,P,269,1,540,260,P,1,<rshift>,1,1,857001,427
CONTROL_TS_10B,1,test,P,270,4,740,460,P,1,<rshift>,1,1,858003,482
CONTROL_TS_10B,1,test,P,271,4,740,460,P,1,<rshift>,1,1,859001,372
CONTROL_TS_10B,1,test,P,272,3,540,460,P,1,<rshift>,1,1,860002,375
CONTROL_TS_10B,1,test,P,273,1,540,260,P,1,<rshift>,1,1,861003,395
CONTROL_TS_10B,1,test,P,274,1,540,260,P,1,<rshift>,1,1,861998,486
CONTROL_TS_10B,1,test,P,275,2,740,260,P,1,<rshift>,1,1,863001,358
CONTROL_TS_10B,1,test,P,276,2,740,260,P,1,<rshift>,1,1,864003,425
CONTROL_TS_10B,1,test,P,277,3,540,460,P,1,<rshift>,1,1,865003,480
CONTROL_TS_10B,1,test,P,278,2,740,260,P,1,<rshift>,1,1,865999,350
CONTROL_TS_10B,1,test,P,279,1,540,260,P,1,<rshift>,1,1,867002,369
CONTROL_TS_10B,1,test,P,280,2,740,260,P,1,<rshift>,1,1,868004,309
CONTROL_TS_10B,1,test,P,281,3,540,460,P,1,<rshift>,1,1,869001,382
CONTROL_TS_10B,1,test,P,282,3,540,460,P,1,<rshift>,1,1,869999,390
CONTROL_TS_10B,1,test,P,283,2,740,260,P,1,<rshift>,1,1,871001,340
CONTROL_TS_10B,1,test,P,284,4,740,460,P,1,<rshift>,1,1,872002,384
CONTROL_TS_10B,1,test,P,285,3,540,460,P,1,<rshift>,1,1,873001,388
CONTROL_TS_10B,1,test,P,286,2,740,260,P,1,<rshift>,1,1,874003,315
CONTROL_TS_10B,1,test,P,287,2,740,260,P,1,<rshift>,1,1,875001,422
CONTROL_TS_10B,1,test,P,288,2,740,260,R,0,NONE,0,1,876002,952
CONTROL_TS_10B,1,test,P,289,4,740,460,P,1,<rshift>,1,1,877000,395
CONTROL_TS_10B,1,test,P,290,4,740,460,P,1,<rshift>,1,1,878003,470
CONTROL_TS_10B,1,test,P,291,4,740,460,P,1,<rshift>,1,1,879003,368
CONTROL_TS_10B,1,test,P,292,3,540,460,P,1,<rshift>,1,1,880001,368
CONTROL_TS_10B,1,test,P,293,3,540,460,P,1,<rshift>,1,1,881003,353
CONTROL_TS_10B,1,test,P,294,4,740,460,P,1,<rshift>,1,1,882003,357
CONTROL_TS_10B,1,test,P,295,4,740,460,R,0,<rshift>,1,0,882993,332
CONTROL_TS_10B,1,test,P,296,1,540,260,P,1,<rshift>,1,1,884001,332
CONTROL_TS_10B,1,test,P,297,2,740,260,R,0,NONE,0,1,885002,952
CONTROL_TS_10B,1,test,P,298,1,540,260,P,1,<rshift>,1,1,886002,462
CONTROL_TS_10B,1,test,P,299,3,540,460,P,1,<rshift>,1,1,887005,410
CONTROL_TS_10B,1,test,P,300,1,540,260,P,1,<rshift>,1,1,888003,379
CONTROL_TS_10B,2,practice,R,1,1,540,260,P,0,NONE,0,1,899537,953
CONTROL_TS_10B,2,practice,R,2,1,540,260,R,1,<rshift>,1,1,900542,419
CONTROL_TS_10B,2,practice,R,3,1,540,260,R,1,<rshift>,1,1,901546,534
CONTROL_TS_10B,2,practice,R,4,3,540,460,R,1,<rshift>,1,1,902545,419
CONTROL_TS_10B,2,practice,R,5,2,740,260,R,1,<rshift>,1,1,903542,357
CONTROL_TS_10B,2,practice,R,6,1,540,260,R,1,<rshift>,1,1,904548,313
CONTROL_TS_10B,2,practice,R,7,4,740,460,R,1,<rshift>,1,1,905546,278
CONTROL_TS_10B,2,practice,R,8,3,540,460,R,1,<rshift>,1,1,906542,294
CONTROL_TS_10B,2,practice,R,9,4,740,460,R,1,<rshift>,1,1,907546,348
CONTROL_TS_10B,2,practice,R,10,4,740,460,P,0,NONE,0,1,908544,952
CONTROL_TS_10B,3,test,R,1,3,540,460,R,1,<rshift>,1,1,911833,446
CONTROL_TS_10B,3,test,R,2,2,740,260,P,0,NONE,0,1,912838,953
CONTROL_TS_10B,3,test,R,3,4,740,460,R,1,<rshift>,1,1,913835,435
CONTROL_TS_10B,3,test,R,4,4,740,460,R,1,<rshift>,1,1,914838,403
CONTROL_TS_10B,3,test,R,5,1,540,260,R,1,<rshift>,1,1,915836,464
CONTROL_TS_10B,3,test,R,6,1,540,260,R,1,<rshift>,1,1,916840,408
CONTROL_TS_10B,3,test,R,7,4,740,460,R,1,<rshift>,1,1,917838,376
CONTROL_TS_10B,3,test,R,8,2,740,260,R,1,<rshift>,1,1,918835,466
CONTROL_TS_10B,3,test,R,9,1,540,260,R,1,<rshift>,1,1,919833,385
CONTROL_TS_10B,3,test,R,10,1,540,260,P,0,NONE,0,1,920837,952
CONTROL_TS_10B,3,test,R,11,2,740,260,R,1,<rshift>,1,1,921830,371
CONTROL_TS_10B,3,test,R,12,2,740,260,R,1,<rshift>,1,1,922840,415
CONTROL_TS_10B,3,test,R,13,4,740,460,R,1,<rshift>,1,1,923837,362
CONTROL_TS_10B,3,test,R,14,2,740,260,P,0,NONE,0,1,924837,952
CONTROL_TS_10B,3,test,R,15,4,740,460,R,1,<rshift>,1,1,925836,410
CONTROL_TS_10B,3,test,R,16,1,540,260,R,1,<rshift>,1,1,926838,348
CONTROL_TS_10B,3,test,R,17,4,740,460,R,1,<rshift>,1,1,927837,361
CONTROL_TS_10B,3,test,R,18,3,540,460,R,1,<rshift>,1,1,928837,484
CONTROL_TS_10B,3,test,R,19,4,740,460,R,1,<rshift>,1,1,929834,367
CONTROL_TS_10B,3,test,R,20,1,540,260,R,1,<rshift>,1,1,930841,374
CONTROL_TS_10B,3,test,R,21,1,540,260,R,1,<rshift>,1,1,931836,414
CONTROL_TS_10B,3,test,R,22,4,740,460,P,0,NONE,0,1,932836,953
CONTROL_TS_10B,3,test,R,23,4,740,460,R,1,<rshift>,1,1,933837,420
CONTROL_TS_10B,3,test,R,24,1,540,260,R,1,<rshift>,1,1,934833,381
CONTROL_TS_10B,3,test,R,25,4,740,460,R,1,<rshift>,1,1,935844,359
CONTROL_TS_10B,3,test,R,26,1,540,260,R,1,<rshift>,1,1,936835,381
CONTROL_TS_10B,3,test,R,27,1,540,260,R,1,<rshift>,1,1,937837,360
CONTROL_TS_10B,3,test,R,28,2,740,260,R,1,<rshift>,1,1,938840,353
CONTROL_TS_10B,3,test,R,29,2,740,260,R,1,<rshift>,1,1,939837,365
CONTROL_TS_10B,3,test,R,30,2,740,260,R,1,<rshift>,1,1,940837,345
CONTROL_TS_10B,3,test,R,31,4,740,460,R,1,<rshift>,1,1,941836,386
CONTROL_TS_10B,3,test,R,32,1,540,260,R,1,<rshift>,1,1,942839,337
CONTROL_TS_10B,3,test,R,33,1,540,260,R,1,<rshift>,1,1,943837,372
CONTROL_TS_10B,3,test,R,34,1,540,260,R,1,<rshift>,1,1,944837,353
CONTROL_TS_10B,3,test,R,35,2,740,260,P,0,NONE,0,1,945838,953
CONTROL_TS_10B,3,test,R,36,1,540,260,R,1,<rshift>,1,1,946837,529
CONTROL_TS_10B,3,test,R,37,1,540,260,R,1,<rshift>,1,1,947839,394
CONTROL_TS_10B,3,test,R,38,4,740,460,P,0,<rshift>,1,0,948838,361
CONTROL_TS_10B,3,test,R,39,4,740,460,R,1,<rshift>,1,1,949836,439
CONTROL_TS_10B,3,test,R,40,3,540,460,R,1,<rshift>,1,1,950829,435
CONTROL_TS_10B,3,test,R,41,2,740,260,R,1,<rshift>,1,1,951839,408
CONTROL_TS_10B,3,test,R,42,3,540,460,R,1,<rshift>,1,1,952838,426
CONTROL_TS_10B,3,test,R,43,1,540,260,R,1,<rshift>,1,1,953840,449
CONTROL_TS_10B,3,test,R,44,1,540,260,P,0,NONE,0,1,954841,952
CONTROL_TS_10B,3,test,R,45,1,540,260,R,1,<rshift>,1,1,955836,458
CONTROL_TS_10B,3,test,R,46,2,740,260,R,1,<rshift>,1,1,956836,345
CONTROL_TS_10B,3,test,R,47,2,740,260,R,1,<rshift>,1,1,957837,393
CONTROL_TS_10B,3,test,R,48,4,740,460,R,1,<rshift>,1,1,958835,380
CONTROL_TS_10B,3,test,R,49,4,740,460,R,1,<rshift>,1,1,959837,372
CONTROL_TS_10B,3,test,R,50,3,540,460,R,1,<rshift>,1,1,960836,460
CONTROL_TS_10B,3,test,R,51,2,740,260,R,1,<rshift>,1,1,961837,368
CONTROL_TS_10B,3,test,R,52,1,540,260,R,1,<rshift>,1,1,962839,457
CONTROL_TS_10B,3,test,R,53,2,740,260,R,1,<rshift>,1,1,963837,366
CONTROL_TS_10B,3,test,R,54,1,540,260,R,1,<rshift>,1,1,964835,460
CONTROL_TS_10B,3,test,R,55,4,740,460,R,1,<rshift>,1,1,965838,314
CONTROL_TS_10B,3,test,R,56,2,740,260,R,1,<rshift>,1,1,966838,386
CONTROL_TS_10B,3,test,R,57,3,540,460,R,1,<rshift>,1,1,967835,356
CONTROL_TS_10B,3,test,R,58,1,540,260,R,1,<rshift>,1,1,968837,336
CONTROL_TS_10B,3,test,R,59,1,540,260,P,0,NONE,0,1,969839,955
CONTROL_TS_10B,3,test,R,60,4,740,460,R,1,<rshift>,1,1,970835,344
CONTROL_TS_10B,3,test,R,61,4,740,460,P,0,<rshift>,1,0,971837,356
CONTROL_TS_10B,3,test,R,62,3,540,460,R,1,<rshift>,1,1,972833,363
CONTROL_TS_10B,3,test,R,63,3,540,460,R,1,<rshift>,1,1,973838,418
CONTROL_TS_10B,3,test,R,64,3,540,460,R,1,<rshift>,1,1,974836,456
CONTROL_TS_10B,3,test,R,65,2,740,260,P,0,NONE,0,1,975838,952
CONTROL_TS_10B,3,test,R,66,1,540,260,R,1,<rshift>,1,1,976837,428
CONTROL_TS_10B,3,test,R,67,2,740,260,R,1,<rshift>,1,1,977836,354
CONTROL_TS_10B,3,test,R,68,2,740,260,P,0,NONE,0,1,978838,953
CONTROL_TS_10B,3,test,R,69,1,540,260,R,1,<rshift>,1,1,979838,369
CONTROL_TS_10B,3,test,R,70,4,740,460,P,0,<rshift>,1,0,980839,327
CONTROL_TS_10B,3,test,R,71,1,540,260,R,1,<rshift>,1,1,981842,351
CONTROL_TS_10B,3,test,R,72,1,540,260,R,1,<rshift>,1,1,982834,428
CONTROL_TS_10B,3,test,R,73,2,740,260,R,1,<rshift>,1,1,983836,377
CONTROL_TS_10B,3,test,R,74,4,740,460,R,1,<rshift>,1,1,984835,455
CONTROL_TS_10B,3,test,R,75,4,740,460,R,1,<rshift>,1,1,985836,397
CONTROL_TS_10B,3,test,R,76,4,740,460,R,1,<rshift>,1,1,986841,390
CONTROL_TS_10B,3,test,R,77,4,740,460,R,1,<rshift>,1,1,987836,414
CONTROL_TS_10B,3,test,R,78,4,740,460,P,0,NONE,0,1,988841,953
CONTROL_TS_10B,3,test,R,79,3,540,460,R,1,<rshift>,1,1,989839,602
CONTROL_TS_10B,3,test,R,80,4,740,460,R,1,<rshift>,1,1,990841,435
CONTROL_TS_10B,3,test,R,81,3,540,460,P,0,NONE,0,1,991837,953
CONTROL_TS_10B,3,test,R,82,4,740,460,R,1,<rshift>,1,1,992835,371
CONTROL_TS_10B,3,test,R,83,3,540,460,R,1,<rshift>,1,1,993837,332
CONTROL_TS_10B,3,test,R,84,4,740,460,P,0,NONE,0,1,994836,953
CONTROL_TS_10B,3,test,R,85,2,740,260,R,1,<rshift>,1,1,995835,436
CONTROL_TS_10B,3,test,R,86,2,740,260,R,1,<rshift>,1,1,996840,408
CONTROL_TS_10B,3,test,R,87,3,540,460,R,1,<rshift>,1,1,997842,416
CONTROL_TS_10B,3,test,R,88,2,740,260,P,0,NONE,0,1,998834,953
CONTROL_TS_10B,3,test,R,89,3,540,460,P,0,NONE,0,1,999840,952
CONTROL_TS_10B,3,test,R,90,4,740,460,R,1,<rshift>,1,1,1000834,366
CONTROL_TS_10B,3,test,R,91,3,540,460,R,1,<rshift>,1,1,1001833,361
CONTROL_TS_10B,3,test,R,92,2,740,260,R,1,<rshift>,1,1,1002837,352
CONTROL_TS_10B,3,test,R,93,1,540,260,R,1,<rshift>,1,1,1003838,487
CONTROL_TS_10B,3,test,R,94,1,540,260,R,1,<rshift>,1,1,1004836,461
CONTROL_TS_10B,3,test,R,95,3,540,460,R,1,<rshift>,1,1,1005836,377
CONTROL_TS_10B,3,test,R,96,4,740,460,R,1,<rshift>,1,1,1006838,320
CONTROL_TS_10B,3,test,R,97,1,540,260,R,1,<rshift>,1,1,1007837,338
CONTROL_TS_10B,3,test,R,98,2,740,260,R,1,<rshift>,1,1,1008839,311
CONTROL_TS_10B,3,test,R,99,2,740,260,P,0,<rshift>,1,0,1009835,338
CONTROL_TS_10B,3,test,R,100,1,540,260,R,1,<rshift>,1,1,1010835,366
CONTROL_TS_10B,3,test,R,101,4,740,460,P,0,<rshift>,1,0,1011839,350
CONTROL_TS_10B,3,test,R,102,1,540,260,P,0,NONE,0,1,1012838,952
CONTROL_TS_10B,3,test,R,103,1,540,260,R,1,<rshift>,1,1,1013836,469
CONTROL_TS_10B,3,test,R,104,2,740,260,R,1,<rshift>,1,1,1014838,380
CONTROL_TS_10B,3,test,R,105,4,740,460,P,0,NONE,0,1,1015826,953
CONTROL_TS_10B,3,test,R,106,2,740,260,R,1,<rshift>,1,1,1016836,389
CONTROL_TS_10B,3,test,R,107,1,540,260,P,0,NONE,0,1,1017838,952
CONTROL_TS_10B,3,test,R,108,4,740,460,R,1,<rshift>,1,1,1018835,354
CONTROL_TS_10B,3,test,R,109,4,740,460,R,1,<rshift>,1,1,1019839,461
CONTROL_TS_10B,3,test,R,110,2,740,260,R,1,<rshift>,1,1,1020837,398
CONTROL_TS_10B,3,test,R,111,2,740,260,P,0,NONE,0,1,1021838,953
CONTROL_TS_10B,3,test,R,112,3,540,460,P,0,NONE,0,1,1022841,952
CONTROL_TS_10B,3,test,R,113,1,540,260,R,1,<rshift>,1,1,1023836,404
CONTROL_TS_10B,3,test,R,114,2,740,260,R,1,<rshift>,1,1,1024836,422
CONTROL_TS_10B,3,test,R,115,4,740,460,R,1,<rshift>,1,1,1025837,382
CONTROL_TS_10B,3,test,R,116,1,540,260,P,0,NONE,0,1,1026839,952
CONTROL_TS_10B,3,test,R,117,2,740,260,R,1,<rshift>,1,1,1027837,339
CONTROL_TS_10B,3,test,R,118,1,540,260,R,1,<rshift>,1,1,1028838,398
CONTROL_TS_10B,3,test,R,119,3,540,460,R,1,<rshift>,1,1,1029836,405
CONTROL_TS_10B,3,test,R,120,2,740,260,P,0,NONE,0,1,1030835,953
CONTROL_TS_10B,3,test,R,121,4,740,460,P,0,NONE,0,1,1031834,951
CONTROL_TS_10B,3,test,R,122,4,740,460,P,0,NONE,0,1,1032834,953
CONTROL_TS_10B,3,test,R,123,1,540,260,P,0,NONE,0,1,1033835,952
CONTROL_TS_10B,3,test,R,124,2,740,260,R,1,<rshift>,1,1,1034839,407
CONTROL_TS_10B,3,test,R,125,3,540,460,R,1,<rshift>,1,1,1035838,373
CONTROL_TS_10B,3,test,R,126,1,540,260,R,1,<rshift>,1,1,1036837,634
CONTROL_TS_10B,3,test,R,127,2,740,260,R,1,<rshift>,1,1,1037837,372
CONTROL_TS_10B,3,test,R,128,2,740,260,P,0,NONE,0,1,1038840,954
CONTROL_TS_10B,3,test,R,129,3,540,460,P,0,NONE,0,1,1039837,953
CONTROL_TS_10B,3,test,R,130,2,740,260,R,1,<rshift>,1,1,1040835,449
CONTROL_TS_10B,3,test,R,131,1,540,260,R,1,<rshift>,1,1,1041841,343
CONTROL_TS_10B,3,test,R,132,3,540,460,R,1,<rshift>,1,1,1042824,381
CONTROL_TS_10B,3,test,R,133,2,740,260,R,1,<rshift>,1,1,1043839,361
CONTROL_TS_10B,3,test,R,134,4,740,460,R,1,<rshift>,1,1,1044837,356
CONTROL_TS_10B,3,test,R,135,2,740,260,R,1,<rshift>,1,1,1045839,381
CONTROL_TS_10B,3,test,R,136,3,540,460,R,1,<rshift>,1,1,1046840,357
CONTROL_TS_10B,3,test,R,137,2,740,260,R,1,<rshift>,1,1,1047833,343
CONTROL_TS_10B,3,test,R,138,3,540,460,R,1,<rshift>,1,1,1048841,336
CONTROL_TS_10B,3,test,R,139,3,540,460,R,1,<rshift>,1,1,1049840,370
CONTROL_TS_10B,3,test,R,140,1,540,260,R,1,<rshift>,1,1,1050835,383
CONTROL_TS_10B,3,test,R,141,2,740,260,R,1,<rshift>,1,1,1051836,261
CONTROL_TS_10B,3,test,R,142,3,540,460,R,1,<rshift>,1,1,1052834,434
CONTROL_TS_10B,3,test,R,143,2,740,260,R,1,<rshift>,1,1,1053838,336
CONTROL_TS_10B,3,test,R,144,3,540,460,R,1,<rshift>,1,1,1054835,333
CONTROL_TS_10B,3,test,R,145,1,540,260,R,1,<rshift>,1,1,1055836,335
CONTROL_TS_10B,3,test,R,146,3,540,460,P,0,<rshift>,1,0,1056839,351
CONTROL_TS_10B,3,test,R,147,3,540,460,R,1,<rshift>,1,1,1057837,479
CONTROL_TS_10B,3,test,R,148,2,740,260,R,1,<rshift>,1,1,1058834,367
CONTROL_TS_10B,3,test,R,149,2,740,260,P,0,NONE,0,1,1059838,952
CONTROL_TS_10B,3,test,R,150,2,740,260,R,1,<rshift>,1,1,1060835,423
CONTROL_TS_10B,3,test,R,151,2,740,260,R,1,<rshift>,1,1,1061841,368
CONTROL_TS_10B,3,test,R,152,1,540,260,R,1,<rshift>,1,1,1062841,493
CONTROL_TS_10B,3,test,R,153,1,540,260,R,1,<rshift>,1,1,1063840,531
CONTROL_TS_10B,3,test,R,154,3,540,460,R,1,<rshift>,1,1,1064836,450
CONTROL_TS_10B,3,test,R,155,4,740,460,R,1,<rshift>,1,1,1065842,396
CONTROL_TS_10B,3,test,R,156,2,740,260,P,0,NONE,0,1,1066846,953
CONTROL_TS_10B,3,test,R,157,2,740,260,R,1,<rshift>,1,1,1067835,459
CONTROL_TS_10B,3,test,R,158,1,540,260,R,1,<rshift>,1,1,1068834,455
CONTROL_TS_10B,3,test,R,159,3,540,460,R,1,<rshift>,1,1,1069838,351
CONTROL_TS_10B,3,test,R,160,2,740,260,R,1,<rshift>,1,1,1070836,336
CONTROL_TS_10B,3,test,R,161,4,740,460,R,1,<rshift>,1,1,1071839,368
CONTROL_TS_10B,3,test,R,162,3,540,460,R,1,<rshift>,1,1,1072838,356
CONTROL_TS_10B,3,test,R,163,3,540,460,R,1,<rshift>,1,1,1073839,463
CONTROL_TS_10B,3,test,R,164,4,740,460,R,1,<rshift>,1,1,1074838,379
CONTROL_TS_10B,3,test,R,165,1,540,260,R,1,<rshift>,1,1,1075836,339
CONTROL_TS_10B,3,test,R,166,4,740,460,R,1,<rshift>,1,1,1076836,350
CONTROL_TS_10B,3,test,R,167,2,740,260,R,1,<rshift>,1,1,1077841,346
CONTROL_TS_10B,3,test,R,168,3,540,460,R,1,<rshift>,1,1,1078838,362
CONTROL_TS_10B,3,test,R,169,4,740,460,R,1,<rshift>,1,1,1079835,355
CONTROL_TS_10B,3,test,R,170,2,740,260,P,0,NONE,0,1,1080841,953
CONTROL_TS_10B,3,test,R,171,2,740,260,R,1,<rshift>,1,1,1081834,377
CONTROL_TS_10B,3,test,R,172,3,540,460,R,1,<rshift>,1,1,1082842,385
CONTROL_TS_10B,3,test,R,173,1,540,260,R,1,<rshift>,1,1,1083839,356
CONTROL_TS_10B,3,test,R,174,4,740,460,R,1,<rshift>,1,1,1084837,358
CONTROL_TS_10B,3,test,R,175,1,540,260,R,1,<rshift>,1,1,1085838,375
CONTROL_TS_10B,3,test,R,176,1,540,260,P,0,NONE,0,1,1086839,954
CONTROL_TS_10B,3,test,R,177,4,740,460,P,0,<rshift>,1,0,1087840,369
CONTROL_TS_10B,3,test,R,178,2,740,260,P,0,NONE,0,1,1088833,953
CONTROL_TS_10B,3,test,R,179,1,540,260,R,1,<rshift>,1,1,1089838,418
CONTROL_TS_10B,3,test,R,180,1,540,260,R,1,<rshift>,1,1,1090833,405
CONTROL_TS_10B,3,test,R,181,1,540,260,R,1,<rshift>,1,1,1091838,390
CONTROL_TS_10B,3,test,R,182,3,540,460,R,1,<rshift>,1,1,1092837,434
CONTROL_TS_10B,3,test,R,183,2,740,260,P,0,NONE,0,1,1093836,952
CONTROL_TS_10B,3,test,R,184,1,540,260,R,1,<rshift>,1,1,1094835,478
CONTROL_TS_10B,3,test,R,185,3,540,460,R,1,<rshift>,1,1,1095837,364
CONTROL_TS_10B,3,test,R,186,1,540,260,R,1,<rshift>,1,1,1096837,360
CONTROL_TS_10B,3,test,R,187,1,540,260,R,1,<rshift>,1,1,1097838,386
CONTROL_TS_10B,3,test,R,188,3,540,460,R,1,<rshift>,1,1,1098840,370
CONTROL_TS_10B,3,test,R,189,3,540,460,P,0,NONE,0,1,1099838,954
CONTROL_TS_10B,3,test,R,190,4,740,460,R,1,<rshift>,1,1,1100836,350
CONTROL_TS_10B,3,test,R,191,2,740,260,P,0,NONE,0,1,1101837,953
CONTROL_TS_10B,3,test,R,192,4,740,460,R,1,<rshift>,1,1,1102833,361
CONTROL_TS_10B,3,test,R,193,3,540,460,R,1,<rshift>,1,1,1103837,322
CONTROL_TS_10B,3,test,R,194,4,740,460,R,1,<rshift>,1,1,1104835,382
CONTROL_TS_10B,3,test,R,195,4,740,460,R,1,<rshift>,1,1,1105836,387
CONTROL_TS_10B,3,test,R,196,3,540,460,R,1,<rshift>,1,1,1106836,538
CONTROL_TS_10B,3,test,R,197,2,740,260,P,0,NONE,0,1,1107837,953
CONTROL_TS_10B,3,test,R,198,1,540,260,P,0,<rshift>,1,0,1108835,336
CONTROL_TS_10B,3,test,R,199,3,540,460,R,1,<rshift>,1,1,1109838,342
CONTROL_TS_10B,3,test,R,200,4,740,460,R,1,<rshift>,1,1,1110835,320
CONTROL_TS_10B,3,test,R,201,3,540,460,R,1,<rshift>,1,1,1111836,339
CONTROL_TS_10B,3,test,R,202,4,740,460,R,1,<rshift>,1,1,1112839,393
CONTROL_TS_10B,3,test,R,203,2,740,260,R,1,<rshift>,1,1,1113836,354
CONTROL_TS_10B,3,test,R,204,1,540,260,R,1,<rshift>,1,1,1114835,341
CONTROL_TS_10B,3,test,R,205,2,740,260,P,0,<rshift>,1,0,1115835,332
CONTROL_TS_10B,3,test,R,206,4,740,460,R,1,<rshift>,1,1,1116838,332
CONTROL_TS_10B,3,test,R,207,2,740,260,R,1,<rshift>,1,1,1117835,361
CONTROL_TS_10B,3,test,R,208,4,740,460,P,0,<rshift>,1,0,1118838,351
CONTROL_TS_10B,3,test,R,209,1,540,260,R,1,<rshift>,1,1,1119838,351
CONTROL_TS_10B,3,test,R,210,4,740,460,R,1,<rshift>,1,1,1120836,474
CONTROL_TS_10B,3,test,R,211,3,540,460,R,1,<rshift>,1,1,1121834,424
CONTROL_TS_10B,3,test,R,212,3,540,460,R,1,<rshift>,1,1,1122838,475
CONTROL_TS_10B,3,test,R,213,3,540,460,R,1,<rshift>,1,1,1123833,451
CONTROL_TS_10B,3,test,R,214,2,740,260,P,0,NONE,0,1,1124834,952
CONTROL_TS_10B,3,test,R,215,2,740,260,R,1,<rshift>,1,1,1125830,411
CONTROL_TS_10B,3,test,R,216,4,740,460,R,1,<rshift>,1,1,1126829,380
CONTROL_TS_10B,3,test,R,217,1,540,260,R,1,<rshift>,1,1,1127836,366
CONTROL_TS_10B,3,test,R,218,4,740,460,P,0,NONE,0,1,1128838,952
CONTROL_TS_10B,3,test,R,219,2,740,260,R,1,<rshift>,1,1,1129834,384
CONTROL_TS_10B,3,test,R,220,1,540,260,R,1,<rshift>,1,1,1130836,429
CONTROL_TS_10B,3,test,R,221,2,740,260,R,1,<rshift>,1,1,1131836,366
CONTROL_TS_10B,3,test,R,222,3,540,460,P,0,NONE,0,1,1132834,953
CONTROL_TS_10B,3,test,R,223,3,540,460,R,1,<rshift>,1,1,1133839,605
CONTROL_TS_10B,3,test,R,224,3,540,460,R,1,<rshift>,1,1,1134838,471
CONTROL_TS_10B,3,test,R,225,1,540,260,R,1,<rshift>,1,1,1135837,443
CONTROL_TS_10B,3,test,R,226,2,740,260,R,1,<rshift>,1,1,1136837,354
CONTROL_TS_10B,3,test,R,227,4,740,460,R,1,<rshift>,1,1,1137837,397
CONTROL_TS_10B,3,test,R,228,1,540,260,P,0,NONE,0,1,1138838,954
CONTROL_TS_10B,3,test,R,229,4,740,460,P,0,<rshift>,1,0,1139837,379
CONTROL_TS_10B,3,test,R,230,4,740,460,R,1,<rshift>,1,1,1140839,443
CONTROL_TS_10B,3,test,R,231,4,740,460,R,1,<rshift>,1,1,1141837,408
CONTROL_TS_10B,3,test,R,232,4,740,460,P,0,NONE,0,1,1142840,953
CONTROL_TS_10B,3,test,R,233,3,540,460,R,1,<rshift>,1,1,1143837,475
CONTROL_TS_10B,3,test,R,234,4,740,460,R,1,<rshift>,1,1,1144835,392
CONTROL_TS_10B,3,test,R,235,3,540,460,R,1,<rshift>,1,1,1145837,415
CONTROL_TS_10B,3,test,R,236,1,540,260,R,1,<rshift>,1,1,1146835,373
CONTROL_TS_10B,3,test,R,237,1,540,260,R,1,<rshift>,1,1,1147834,403
CONTROL_TS_10B,3,test,R,238,3,540,460,P,0,NONE,0,1,1148837,952
CONTROL_TS_10B,3,test,R,239,1,540,260,R,1,<rshift>,1,1,1149838,360
CONTROL_TS_10B,3,test,R,240,2,740,260,R,1,<rshift>,1,1,1150837,373
CONTROL_TS_10B,3,test,R,241,1,540,260,P,0,<rshift>,1,0,1151834,352
CONTROL_TS_10B,3,test,R,242,2,740,260,R,1,<rshift>,1,1,1152837,364
CONTROL_TS_10B,3,test,R,243,4,740,460,R,1,<rshift>,1,1,1153840,410
CONTROL_TS_10B,3,test,R,244,4,740,460,R,1,<rshift>,1,1,1154836,392
CONTROL_TS_10B,3,test,R,245,1,540,260,R,1,<rshift>,1,1,1155838,475
CONTROL_TS_10B,3,test,R,246,3,540,460,R,1,<rshift>,1,1,1156835,415
CONTROL_TS_10B,3,test,R,247,1,540,260,R,1,<rshift>,1,1,1157834,360
CONTROL_TS_10B,3,test,R,248,4,740,460,R,1,<rshift>,1,1,1158834,348
CONTROL_TS_10B,3,test,R,249,4,740,460,R,1,<rshift>,1,1,1159834,369
CONTROL_TS_10B,3,test,R,250,2,740,260,R,1,<rshift>,1,1,1160837,392
CONTROL_TS_10B,3,test,R,251,1,540,260,P,0,<rshift>,1,0,1161826,402
CONTROL_TS_10B,3,test,R,252,4,740,460,R,1,<rshift>,1,1,1162833,406
CONTROL_TS_10B,3,test,R,253,2,740,260,R,1,<rshift>,1,1,1163838,451
CONTROL_TS_10B,3,test,R,254,1,540,260,R,1,<rshift>,1,1,1164837,477
CONTROL_TS_10B,3,test,R,255,2,740,260,R,1,<rshift>,1,1,1165837,339
CONTROL_TS_10B,3,test,R,256,1,540,260,P,0,NONE,0,1,1166835,953
CONTROL_TS_10B,3,test,R,257,1,540,260,R,1,<rshift>,1,1,1167836,492
CONTROL_TS_10B,3,test,R,258,3,540,460,R,1,<rshift>,1,1,1168835,378
CONTROL_TS_10B,3,test,R,259,3,540,460,P,0,<rshift>,1,0,1169837,586
CONTROL_TS_10B,3,test,R,260,3,540,460,R,1,<rshift>,1,1,1170838,482
CONTROL_TS_10B,3,test,R,261,1,540,260,R,1,<rshift>,1,1,1171835,462
CONTROL_TS_10B,3,test,R,262,4,740,460,P,0,NONE,0,1,1172838,952
CONTROL_TS_10B,3,test,R,263,4,740,460,R,1,<rshift>,1,1,1173840,478
CONTROL_TS_10B,3,test,R,264,4,740,460,R,1,<rshift>,1,1,1174836,381
CONTROL_TS_10B,3,test,R,265,3,540,460,R,1,<rshift>,1,1,1175836,422
CONTROL_TS_10B,3,test,R,266,2,740,260,R,1,<rshift>,1,1,1176836,360
CONTROL_TS_10B,3,test,R,267,1,540,260,R,1,<rshift>,1,1,1177834,427
CONTROL_TS_10B,3,test,R,268,1,540,260,R,1,<rshift>,1,1,1178839,535
CONTROL_TS_10B,3,test,R,269,1,540,260,R,1,<rshift>,1,1,1179839,367
CONTROL_TS_10B,3,test,R,270,1,540,260,R,1,<rshift>,1,1,1180836,366
CONTROL_TS_10B,3,test,R,271,2,740,260,R,1,<rshift>,1,1,1181836,452
CONTROL_TS_10B,3,test,R,272,1,540,260,R,1,<rshift>,1,1,1182837,358
CONTROL_TS_10B,3,test,R,273,4,740,460,R,1,<rshift>,1,1,1183839,394
CONTROL_TS_10B,3,test,R,274,1,540,260,R,1,<rshift>,1,1,1184839,386
CONTROL_TS_10B,3,test,R,275,3,540,460,R,1,<rshift>,1,1,1185836,483
CONTROL_TS_10B,3,test,R,276,3,540,460,P,0,NONE,0,1,1186845,952
CONTROL_TS_10B,3,test,R,277,3,540,460,R,1,<rshift>,1,1,1187836,531
CONTROL_TS_10B,3,test,R,278,4,740,460,R,1,<rshift>,1,1,1188834,356
CONTROL_TS_10B,3,test,R,279,1,540,260,R,1,<rshift>,1,1,1189838,327
CONTROL_TS_10B,3,test,R,280,3,540,460,R,1,<rshift>,1,1,1190834,375
CONTROL_TS_10B,3,test,R,281,3,540,460,R,1,<rshift>,1,1,1191836,348
CONTROL_TS_10B,3,test,R,282,3,540,460,R,1,<rshift>,1,1,1192836,435
CONTROL_TS_10B,3,test,R,283,1,540,260,R,1,<rshift>,1,1,1193837,375
CONTROL_TS_10B,3,test,R,284,4,740,460,R,1,<rshift>,1,1,1194840,294
CONTROL_TS_10B,3,test,R,285,4,740,460,R,1,<rshift>,1,1,1195835,365
CONTROL_TS_10B,3,test,R,286,2,740,260,R,1,<rshift>,1,1,1196836,376
CONTROL_TS_10B,3,test,R,287,3,540,460,R,1,<rshift>,1,1,1197833,296
CONTROL_TS_10B,3,test,R,288,4,740,460,R,1,<rshift>,1,1,1198838,355
CONTROL_TS_10B,3,test,R,289,4,740,460,R,1,<rshift>,1,1,1199837,364
CONTROL_TS_10B,3,test,R,290,2,740,260,P,0,<rshift>,1,0,1200836,341
CONTROL_TS_10B,3,test,R,291,1,540,260,P,0,NONE,0,1,1201838,951
CONTROL_TS_10B,3,test,R,292,3,540,460,R,1,<rshift>,1,1,1202835,545
CONTROL_TS_10B,3,test,R,293,1,540,260,R,1,<rshift>,1,1,1203837,483
CONTROL_TS_10B,3,test,R,294,1,540,260,R,1,<rshift>,1,1,1204839,402
CONTROL_TS_10B,3,test,R,295,1,540,260,R,1,<rshift>,1,1,1205838,386
CONTROL_TS_10B,3,test,R,296,4,740,460,R,1,<rshift>,1,1,1206835,344
CONTROL_TS_10B,3,test,R,297,3,540,460,R,1,<rshift>,1,1,1207840,359
CONTROL_TS_10B,3,test,R,298,2,740,260,R,1,<rshift>,1,1,1208838,340
CONTROL_TS_10B,3,test,R,299,4,740,460,R,1,<rshift>,1,1,1209838,354
CONTROL_TS_10B,3,test,R,300,2,740,260,R,1,<rshift>,1,1,1210838,367
