subnum,block,type,correctresponse,trial,choice,x,y,stim,present,response,responded,corr,starttime,rt
18B,0,practice,P,1,2,740,260,R,0,NONE,0,1,2722,952
18B,0,practice,P,2,2,740,260,P,1,<rshift>,1,1,3720,353
18B,0,practice,P,3,2,740,260,P,1,<rshift>,1,1,4720,255
18B,0,practice,P,4,2,740,260,R,0,<rshift>,1,0,5720,232
18B,0,practice,P,5,2,740,260,P,1,<rshift>,1,1,7008,341
18B,0,practice,P,6,1,540,260,P,1,<rshift>,1,1,7723,389
18B,0,practice,P,7,4,740,460,P,1,<rshift>,1,1,8720,304
18B,0,practice,P,8,1,540,260,P,1,<rshift>,1,1,9722,274
18B,0,practice,P,9,4,740,460,P,1,<rshift>,1,1,10720,306
18B,0,practice,P,10,2,740,260,P,1,<rshift>,1,1,11720,275
18B,1,test,P,1,1,540,260,P,1,NONE,0,0,15512,952
18B,1,test,P,2,2,740,260,P,1,<rshift>,1,1,16516,317
18B,1,test,P,3,1,540,260,P,1,<rshift>,1,1,17516,287
18B,1,test,P,4,3,540,460,P,1,<rshift>,1,1,18514,287
18B,1,test,P,5,4,740,460,R,0,<rshift>,1,0,19514,283
18B,1,test,P,6,3,540,460,R,0,<rshift>,1,0,20516,307
18B,1,test,P,7,1,540,260,P,1,<rshift>,1,1,21513,406
18B,1,test,P,8,1,540,260,P,1,<rshift>,1,1,22515,311
18B,1,test,P,9,4,740,460,P,1,<rshift>,1,1,23515,323
18B,1,test,P,10,2,740,260,P,1,<rshift>,1,1,24515,285
18B,1,test,P,11,1,540,260,R,0,<rshift>,1,0,25514,289
18B,1,test,P,12,1,540,260,P,1,<rshift>,1,1,26516,363
18B,1,test,P,13,2,740,260,R,0,<rshift>,1,0,27516,286
18B,1,test,P,14,1,540,260,R,0,NONE,0,1,28514,953
18B,1,test,P,15,1,540,260,P,1,<rshift>,1,1,29515,411
18B,1,test,P,16,4,740,460,R,0,NONE,0,1,30515,953
18B,1,test,P,17,4,740,460,R,0,NONE,0,1,31518,952
18B,1,test,P,18,2,740,260,P,1,<rshift>,1,1,32518,304
18B,1,test,P,19,2,740,260,P,1,<rshift>,1,1,33514,331
18B,1,test,P,20,2,740,260,P,1,<rshift>,1,1,34516,295
18B,1,test,P,21,2,740,260,R,0,NONE,0,1,35520,953
18B,1,test,P,22,3,540,460,P,1,<rshift>,1,1,36516,327
18B,1,test,P,23,1,540,260,P,1,<rshift>,1,1,37517,351
18B,1,test,P,24,3,540,460,P,1,<rshift>,1,1,38516,459
18B,1,test,P,25,2,740,260,P,1,<rshift>,1,1,39517,429
18B,1,test,P,26,1,540,260,P,1,<rshift>,1,1,40516,348
18B,1,test,P,27,3,540,460,R,0,<rshift>,1,0,41515,457
18B,1,test,P,28,4,740,460,P,1,<rshift>,1,1,42517,612
18B,1,test,P,29,3,540,460,P,1,<rshift>,1,1,43519,376
18B,1,test,P,30,2,740,260,P,1,<rshift>,1,1,44513,330
18B,1,test,P,31,1,540,260,P,1,<rshift>,1,1,45513,312
18B,1,test,P,32,1,540,260,P,1,<rshift>,1,1,46514,324
18B,1,test,P,33,1,540,260,P,1,<rshift>,1,1,47515,359
18B,1,test,P,34,1,540,260,P,1,<rshift>,1,1,48520,285
18B,1,test,P,35,2,740,260,P,1,<rshift>,1,1,49517,468
18B,1,test,P,36,1,540,260,R,0,NONE,0,1,50516,953
18B,1,test,P,37,3,540,460,P,1,<rshift>,1,1,51519,346
18B,1,test,P,38,2,740,260,P,1,<rshift>,1,1,52516,370
18B,1,test,P,39,1,540,260,R,0,<rshift>,1,0,53521,328
18B,1,test,P,40,3,540,460,P,1,<rshift>,1,1,54519,358
18B,1,test,P,41,1,540,260,R,0,<rshift>,1,0,55516,399
18B,1,test,P,42,2,740,260,R,0,NONE,0,1,56517,955
18B,1,test,P,43,3,540,460,P,1,<rshift>,1,1,57518,483
18B,1,test,P,44,4,740,460,P,1,<rshift>,1,1,58519,347
18B,1,test,P,45,2,740,260,P,1,<rshift>,1,1,59520,349
18B,1,test,P,46,1,540,260,R,0,NONE,0,1,60518,952
18B,1,test,P,47,2,740,260,P,1,<rshift>,1,1,61514,289
18B,1,test,P,48,4,740,460,P,1,<rshift>,1,1,62519,411
18B,1,test,P,49,1,540,260,P,1,<rshift>,1,1,63520,519
18B,1,test,P,50,3,540,460,P,1,<rshift>,1,1,64519,449
18B,1,test,P,51,3,540,460,P,1,<rshift>,1,1,65519,357
18B,1,test,P,52,1,540,260,P,1,<rshift>,1,1,66516,419
18B,1,test,P,53,4,740,460,P,1,<rshift>,1,1,67521,351
18B,1,test,P,54,4,740,460,P,1,<rshift>,1,1,68515,325
18B,1,test,P,55,1,540,260,P,1,<rshift>,1,1,69517,384
18B,1,test,P,56,2,740,260,R,0,NONE,0,1,70518,951
18B,1,test,P,57,1,540,260,P,1,<rshift>,1,1,71521,339
18B,1,test,P,58,4,740,460,P,1,<rshift>,1,1,72520,440
18B,1,test,P,59,2,740,260,R,0,<rshift>,1,0,73519,350
18B,1,test,P,60,1,540,260,R,0,NONE,0,1,74520,954
18B,1,test,P,61,4,740,460,P,1,<rshift>,1,1,75519,306
18B,1,test,P,62,1,540,260,P,1,<rshift>,1,1,76519,445
18B,1,test,P,63,2,740,260,P,1,<rshift>,1,1,77517,369
18B,1,test,P,64,4,740,460,P,1,<rshift>,1,1,78515,366
18B,1,test,P,65,4,740,460,R,0,NONE,0,1,79518,953
18B,1,test,P,66,2,740,260,P,1,<rshift>,1,1,80516,343
18B,1,test,P,67,1,540,260,P,1,<rshift>,1,1,81515,328
18B,1,test,P,68,4,740,460,P,1,<rshift>,1,1,82514,345
18B,1,test,P,69,1,540,260,P,1,<rshift>,1,1,83519,382
18B,1,test,P,70,4,740,460,P,1,<rshift>,1,1,84518,379
18B,1,test,P,71,2,740,260,P,1,<rshift>,1,1,85518,332
18B,1,test,P,72,2,740,260,P,1,<rshift>,1,1,86517,352
18B,1,test,P,73,3,540,460,P,1,<rshift>,1,1,87515,367
18B,1,test,P,74,3,540,460,P,1,<rshift>,1,1,88519,432
18B,1,test,P,75,2,740,260,P,1,<rshift>,1,1,89518,423
18B,1,test,P,76,1,540,260,R,0,<rshift>,1,0,90516,350
18B,1,test,P,77,1,540,260,P,1,<rshift>,1,1,91515,465
18B,1,test,P,78,3,540,460,R,0,NONE,0,1,92516,953
18B,1,test,P,79,1,540,260,P,1,<rshift>,1,1,93518,325
18B,1,test,P,80,1,540,260,P,1,<rshift>,1,1,94518,356
18B,1,test,P,81,4,740,460,P,1,<rshift>,1,1,95516,427
18B,1,test,P,82,3,540,460,P,1,<rshift>,1,1,96515,382
18B,1,test,P,83,3,540,460,P,1,<rshift>,1,1,97514,436
18B,1,test,P,84,2,740,260,P,1,<rshift>,1,1,98519,488
18B,1,test,P,85,1,540,260,P,1,<rshift>,1,1,99516,519
18B,1,test,P,86,2,740,260,P,1,<rshift>,1,1,100517,427
18B,1,test,P,87,1,540,260,R,0,<rshift>,1,0,101515,314
18B,1,test,P,88,4,740,460,P,1,<rshift>,1,1,102516,299
18B,1,test,P,89,4,740,460,P,1,<rshift>,1,1,103515,316
18B,1,test,P,90,4,740,460,R,0,<rshift>,1,0,104516,278
18B,1,test,P,91,3,540,460,R,0,<rshift>,1,0,105520,321
18B,1,test,P,92,2,740,260,P,1,<rshift>,1,1,106516,464
18B,1,test,P,93,3,540,460,R,0,NONE,0,1,107513,953
18B,1,test,P,94,3,540,460,P,1,<rshift>,1,1,108517,425
18B,1,test,P,95,1,540,260,P,1,<rshift>,1,1,109516,448
18B,1,test,P,96,4,740,460,P,1,<rshift>,1,1,110514,424
18B,1,test,P,97,2,740,260,P,1,<rshift>,1,1,111523,351
18B,1,test,P,98,3,540,460,R,0,NONE,0,1,112518,954
18B,1,test,P,99,1,540,260,R,0,<rshift>,1,0,113517,318
18B,1,test,P,100,1,540,260,P,1,<rshift>,1,1,114521,319
18B,1,test,P,101,4,740,460,P,1,<rshift>,1,1,115517,520
18B,1,test,P,102,2,740,260,R,0,NONE,0,1,116518,952
18B,1,test,P,103,4,740,460,P,1,<rshift>,1,1,117517,517
18B,1,test,P,104,4,740,460,P,1,<rshift>,1,1,118518,519
18B,1,test,P,105,2,740,260,P,1,<rshift>,1,1,119519,520
18B,1,test,P,106,4,740,460,P,1,<rshift>,1,1,120519,454
18B,1,test,P,107,2,740,260,P,1,<rshift>,1,1,121515,357
18B,1,test,P,108,3,540,460,R,0,NONE,0,1,122515,953
18B,1,test,P,109,2,740,260,R,0,NONE,0,1,123518,952
18B,1,test,P,110,3,540,460,R,0,NONE,0,1,124521,952
18B,1,test,P,111,3,540,460,P,1,<rshift>,1,1,125521,415
18B,1,test,P,112,1,540,260,P,1,<rshift>,1,1,126519,405
18B,1,test,P,113,3,540,460,P,1,<rshift>,1,1,127515,428
18B,1,test,P,114,2,740,260,P,1,<rshift>,1,1,128517,462
18B,1,test,P,115,3,540,460,P,1,<rshift>,1,1,129517,446
18B,1,test,P,116,1,540,260,P,1,<rshift>,1,1,130517,402
18B,1,test,P,117,3,540,460,P,1,<rshift>,1,1,131519,399
18B,1,test,P,118,3,540,460,P,1,<rshift>,1,1,132519,303
18B,1,test,P,119,2,740,260,R,0,NONE,0,1,133514,953
18B,1,test,P,120,4,740,460,P,1,<rshift>,1,1,134516,317
18B,1,test,P,121,1,540,260,P,1,<rshift>,1,1,135516,352
18B,1,test,P,122,1,540,260,P,1,<rshift>,1,1,136517,351
18B,1,test,P,123,1,540,260,P,1,<rshift>,1,1,137523,332
18B,1,test,P,124,1,540,260,R,0,<rshift>,1,0,138520,269
18B,1,test,P,125,4,740,460,P,1,<rshift>,1,1,139517,330
18B,1,test,P,126,3,540,460,P,1,<rshift>,1,1,140518,393
18B,1,test,P,127,4,740,460,P,1,<rshift>,1,1,141515,385
18B,1,test,P,128,3,540,460,R,0,<rshift>,1,0,142517,272
18B,1,test,P,129,3,540,460,P,1,<rshift>,1,1,143518,340
18B,1,test,P,130,2,740,260,P,1,<rshift>,1,1,144518,548
18B,1,test,P,131,4,740,460,R,0,NONE,0,1,145518,953
18B,1,test,P,132,3,540,460,P,1,<rshift>,1,1,146520,358
18B,1,test,P,133,3,540,460,P,1,<rshift>,1,1,147513,382
18B,1,test,P,134,4,740,460,P,1,<rshift>,1,1,148516,445
18B,1,test,P,135,2,740,260,P,1,<rshift>,1,1,149518,480
18B,1,test,P,136,4,740,460,P,1,<rshift>,1,1,150519,499
18B,1,test,P,137,2,740,260,P,1,<rshift>,1,1,151517,424
18B,1,test,P,138,2,740,260,P,1,<rshift>,1,1,152521,344
18B,1,test,P,139,4,740,460,P,1,<rshift>,1,1,153516,335
18B,1,test,P,140,3,540,460,P,1,<rshift>,1,1,154516,367
18B,1,test,P,141,1,540,260,P,1,<rshift>,1,1,155518,402
18B,1,test,P,142,4,740,460,R,0,NONE,0,1,156516,954
18B,1,test,P,143,4,740,460,P,1,<rshift>,1,1,157517,382
18B,1,test,P,144,2,740,260,P,1,<rshift>,1,1,158519,312
18B,1,test,P,145,4,740,460,P,1,<rshift>,1,1,159516,417
18B,1,test,P,146,3,540,460,P,1,<rshift>,1,1,160517,420
18B,1,test,P,147,3,540,460,P,1,<rshift>,1,1,161517,405
18B,1,test,P,148,4,740,460,P,1,<rshift>,1,1,162515,434
18B,1,test,P,149,1,540,260,P,1,<rshift>,1,1,163518,446
18B,1,test,P,150,4,740,460,P,1,<rshift>,1,1,164520,418
18B,1,test,P,151,4,740,460,P,1,<rshift>,1,1,165516,384
18B,1,test,P,152,2,740,260,P,1,<rshift>,1,1,166515,559
18B,1,test,P,153,2,740,260,P,1,<rshift>,1,1,167517,456
18B,1,test,P,154,2,740,260,P,1,<rshift>,1,1,168516,329
18B,1,test,P,155,1,540,260,R,0,<rshift>,1,0,169517,352
18B,1,test,P,156,1,540,260,P,1,<rshift>,1,1,170517,306
18B,1,test,P,157,3,540,460,P,1,<rshift>,1,1,171516,388
18B,1,test,P,158,4,740,460,P,1,<rshift>,1,1,172519,348
18B,1,test,P,159,4,740,460,P,1,<rshift>,1,1,173515,325
18B,1,test,P,160,3,540,460,P,1,<rshift>,1,1,174516,366
18B,1,test,P,161,3,540,460,P,1,<rshift>,1,1,175516,350
18B,1,test,P,162,4,740,460,R,0,NONE,0,1,176517,953
18B,1,test,P,163,2,740,260,R,0,<rshift>,1,0,177518,293
18B,1,test,P,164,2,740,260,P,1,<rshift>,1,1,178518,312
18B,1,test,P,165,2,740,260,P,1,<rshift>,1,1,179518,311
18B,1,test,P,166,2,740,260,P,1,<rshift>,1,1,180516,283
18B,1,test,P,167,1,540,260,R,0,NONE,0,1,181519,951
18B,1,test,P,168,3,540,460,P,1,<rshift>,1,1,182517,282
18B,1,test,P,169,3,540,460,P,1,<rshift>,1,1,183517,318
18B,1,test,P,170,1,540,260,P,1,<rshift>,1,1,184523,549
18B,1,test,P,171,4,740,460,P,1,<rshift>,1,1,185519,455
18B,1,test,P,172,3,540,460,P,1,<rshift>,1,1,186524,360
18B,1,test,P,173,2,740,260,P,1,<rshift>,1,1,187517,314
18B,1,test,P,174,3,540,460,P,1,<rshift>,1,1,188518,359
18B,1,test,P,175,3,540,460,P,1,<rshift>,1,1,189517,398
18B,1,test,P,176,4,740,460,R,0,<rshift>,1,0,190521,438
18B,1,test,P,177,1,540,260,P,1,<rshift>,1,1,191524,330
18B,1,test,P,178,4,740,460,P,1,<rshift>,1,1,192518,303
18B,1,test,P,179,2,740,260,P,1,<rshift>,1,1,193521,351
18B,1,test,P,180,1,540,260,R,0,<rshift>,1,0,194519,315
18B,1,test,P,181,3,540,460,P,1,<rshift>,1,1,195518,293
18B,1,test,P,182,1,540,260,P,1,<rshift>,1,1,196516,337
18B,1,test,P,183,2,740,260,P,1,<rshift>,1,1,197518,318
18B,1,test,P,184,3,540,460,P,1,<rshift>,1,1,198515,325
18B,1,test,P,185,1,540,260,R,0,<rshift>,1,0,199523,372
18B,1,test,P,186,1,540,260,P,1,<rshift>,1,1,200521,325
18B,1,test,P,187,2,740,260,P,1,<rshift>,1,1,201520,386
18B,1,test,P,188,3,540,460,P,1,<rshift>,1,1,202520,432
18B,1,test,P,189,4,740,460,P,1,<rshift>,1,1,203517,384
18B,1,test,P,190,3,540,460,P,1,<rshift>,1,1,204517,350
18B,1,test,P,191,4,740,460,P,1,<rshift>,1,1,205522,358
18B,1,test,P,192,4,740,460,P,1,<rshift>,1,1,206521,343
18B,1,test,P,193,3,540,460,P,1,<rshift>,1,1,207517,261
18B,1,test,P,194,1,540,260,P,1,<rshift>,1,1,208519,352
18B,1,test,P,195,4,740,460,P,1,<rshift>,1,1,209518,297
18B,1,test,P,196,3,540,460,P,1,<rshift>,1,1,210518,271
18B,1,test,P,197,1,540,260,P,1,<rshift>,1,1,211517,263
18B,1,test,P,198,4,740,460,P,1,<rshift>,1,1,212518,338
18B,1,test,P,199,4,740,460,P,1,<rshift>,1,1,213515,387
18B,1,test,P,200,3,540,460,P,1,<rshift>,1,1,214520,355
18B,1,test,P,201,1,540,260,P,1,<rshift>,1,1,215518,304
18B,1,test,P,202,1,540,260,P,1,<rshift>,1,1,216516,304
18B,1,test,P,203,1,540,260,P,1,<rshift>,1,1,217516,349
18B,1,test,P,204,2,740,260,P,1,<rshift>,1,1,218521,349
18B,1,test,P,205,2,740,260,P,1,<rshift>,1,1,219519,301
18B,1,test,P,206,4,740,460,P,1,<rshift>,1,1,220519,367
18B,1,test,P,207,4,740,460,R,0,<rshift>,1,0,221515,427
18B,1,test,P,208,1,540,260,P,1,<rshift>,1,1,222516,305
18B,1,test,P,209,1,540,260,R,0,<rshift>,1,0,223520,327
18B,1,test,P,210,3,540,460,R,0,<rshift>,1,0,224519,454
18B,1,test,P,211,1,540,260,R,0,NONE,0,1,225517,952
18B,1,test,P,212,3,540,460,R,0,NONE,0,1,226516,954
18B,1,test,P,213,1,540,260,P,1,<rshift>,1,1,227519,491
18B,1,test,P,214,1,540,260,R,0,NONE,0,1,228524,952
18B,1,test,P,215,4,740,460,P,1,<rshift>,1,1,229518,420
18B,1,test,P,216,2,740,260,P,1,<rshift>,1,1,230518,480
18B,1,test,P,217,1,540,260,P,1,<rshift>,1,1,231521,477
18B,1,test,P,218,4,740,460,P,1,<rshift>,1,1,232518,431
18B,1,test,P,219,1,540,260,P,1,<rshift>,1,1,233517,280
18B,1,test,P,220,1,540,260,P,1,<rshift>,1,1,234520,403
18B,1,test,P,221,4,740,460,P,1,<rshift>,1,1,235516,352
18B,1,test,P,222,4,740,460,R,0,NONE,0,1,236517,952
18B,1,test,P,223,2,740,260,P,1,<rshift>,1,1,237516,296
18B,1,test,P,224,1,540,260,P,1,<rshift>,1,1,238518,400
18B,1,test,P,225,1,540,260,P,1,<rshift>,1,1,239516,379
18B,1,test,P,226,4,740,460,P,1,<rshift>,1,1,240518,382
18B,1,test,P,227,1,540,260,P,1,<rshift>,1,1,241515,400
18B,1,test,P,228,4,740,460,P,1,<rshift>,1,1,242516,386
18B,1,test,P,229,4,740,460,P,1,<rshift>,1,1,243518,484
18B,1,test,P,230,2,740,260,P,1,<rshift>,1,1,244522,425
18B,1,test,P,231,4,740,460,P,1,<rshift>,1,1,245516,313
18B,1,test,P,232,2,740,260,R,0,NONE,0,1,246516,953
18B,1,test,P,233,1,540,260,R,0,<rshift>,1,0,247518,328
18B,1,test,P,234,2,740,260,P,1,<rshift>,1,1,248520,413
18B,1,test,P,235,3,540,460,P,1,<rshift>,1,1,249522,459
18B,1,test,P,236,4,740,460,P,1,<rshift>,1,1,250519,493
18B,1,test,P,237,3,540,460,P,1,<rshift>,1,1,251522,542
18B,1,test,P,238,3,540,460,P,1,<rshift>,1,1,252516,489
18B,1,test,P,239,1,540,260,P,1,<rshift>,1,1,253518,620
18B,1,test,P,240,3,540,460,R,0,NONE,0,1,254518,953
18B,1,test,P,241,4,740,460,P,1,<rshift>,1,1,255524,281
18B,1,test,P,242,1,540,260,P,1,<rshift>,1,1,256517,459
18B,1,test,P,243,3,540,460,R,0,NONE,0,1,257518,953
18B,1,test,P,244,3,540,460,P,1,<rshift>,1,1,258517,489
18B,1,test,P,245,3,540,460,P,1,<rshift>,1,1,259521,322
18B,1,test,P,246,2,740,260,P,1,<rshift>,1,1,260518,447
18B,1,test,P,247,3,540,460,P,1,<rshift>,1,1,261516,265
18B,1,test,P,248,3,540,460,P,1,<rshift>,1,1,262520,352
18B,1,test,P,249,2,740,260,P,1,<rshift>,1,1,263515,397
18B,1,test,P,250,4,740,460,P,1,<rshift>,1,1,264517,347
18B,1,test,P,251,1,540,260,P,1,<rshift>,1,1,265517,328
18B,1,test,P,252,2,740,260,R,0,<rshift>,1,0,266516,294
18B,1,test,P,253,1,540,260,P,1,<rshift>,1,1,267519,346
18B,1,test,P,254,2,740,260,R,0,<rshift>,1,0,268518,352
18B,1,test,P,255,2,740,260,P,1,<rshift>,1,1,269519,450
18B,1,test,P,256,2,740,260,R,0,NONE,0,1,270516,954
18B,1,test,P,257,2,740,260,P,1,<rshift>,1,1,271517,380
18B,1,test,P,258,3,540,460,P,1,<rshift>,1,1,272516,445
18B,1,test,P,259,3,540,460,P,1,<rshift>,1,1,273517,455
18B,1,test,P,260,4,740,460,P,1,<rshift>,1,1,274522,440
18B,1,test,P,261,3,540,460,P,1,<rshift>,1,1,275519,295
18B,1,test,P,262,3,540,460,R,0,<rshift>,1,0,276516,286
18B,1,test,P,263,4,740,460,P,1,<rshift>,1,1,277517,391
18B,1,test,P,264,4,740,460,P,1,<rshift>,1,1,278516,319
18B,1,test,P,265,1,540,260,P,1,<rshift>,1,1,279520,418
18B,1,test,P,266,3,540,460,P,1,<rshift>,1,1,280515,397
18B,1,test,P,267,4,740,460,P,1,<rshift>,1,1,281518,302
18B,1,test,P,268,2,740,260,P,1,<rshift>,1,1,282517,355
18B,1,test,P,269,2,740,260,P,1,<rshift>,1,1,283517,367
18B,1,test,P,270,3,540,460,P,1,<rshift>,1,1,284516,383
18B,1,test,P,271,3,540,460,P,1,<rshift>,1,1,285518,378
18B,1,test,P,272,1,540,260,P,1,<rshift>,1,1,286516,427
18B,1,test,P,273,2,740,260,P,1,<rshift>,1,1,287519,427
18B,1,test,P,274,2,740,260,R,0,NONE,0,1,288518,952
18B,1,test,P,275,1,540,260,P,1,<rshift>,1,1,289518,321
18B,1,test,P,276,4,740,460,P,1,<rshift>,1,1,290518,397
18B,1,test,P,277,1,540,260,P,1,<rshift>,1,1,291517,315
18B,1,test,P,278,2,740,260,P,1,<rshift>,1,1,292519,321
18B,1,test,P,279,3,540,460,P,1,<rshift>,1,1,293517,330
18B,1,test,P,280,2,740,260,P,1,<rshift>,1,1,294514,314
18B,1,test,P,281,4,740,460,P,1,<rshift>,1,1,295518,308
18B,1,test,P,282,1,540,260,P,1,<rshift>,1,1,296516,304
18B,1,test,P,283,3,540,460,P,1,<rshift>,1,1,297517,361
18B,1,test,P,284,2,740,260,P,1,<rshift>,1,1,298518,351
18B,1,test,P,285,4,740,460,P,1,<rshift>,1,1,299516,298
18B,1,test,P,286,3,540,460,P,1,<rshift>,1,1,300516,240
18B,1,test,P,287,1,540,260,P,1,<rshift>,1,1,301519,261
18B,1,test,P,288,3,540,460,P,1,<rshift>,1,1,302518,393
18B,1,test,P,289,3,540,460,P,1,<rshift>,1,1,303515,387
18B,1,test,P,290,4,740,460,P,1,<rshift>,1,1,304523,309
18B,1,test,P,291,3,540,460,R,0,<rshift>,1,0,305520,335
18B,1,test,P,292,4,740,460,R,0,<rshift>,1,0,306517,338
18B,1,test,P,293,2,740,260,P,1,<rshift>,1,1,307516,448
18B,1,test,P,294,4,740,460,P,1,<rshift>,1,1,308522,451
18B,1,test,P,295,1,540,260,P,1,<rshift>,1,1,309519,420
18B,1,test,P,296,3,540,460,P,1,<rshift>,1,1,310517,407
18B,1,test,P,297,2,740,260,P,1,<rshift>,1,1,311523,368
18B,1,test,P,298,1,540,260,P,1,<rshift>,1,1,312519,316
18B,1,test,P,299,1,540,260,P,1,<rshift>,1,1,313518,391
18B,1,test,P,300,3,540,460,P,1,<rshift>,1,1,314520,409
18B,2,practice,R,1,1,540,260,R,1,<rshift>,1,1,334610,534
18B,2,practice,R,2,3,540,460,P,0,NONE,0,1,335618,953
18B,2,practice,R,3,2,740,260,R,1,<rshift>,1,1,336615,446
18B,2,practice,R,4,2,740,260,R,1,<rshift>,1,1,337615,430
18B,2,practice,R,5,3,540,460,R,1,<rshift>,1,1,338610,407
18B,2,practice,R,6,3,540,460,R,1,<rshift>,1,1,339614,324
18B,2,practice,R,7,3,540,460,R,1,<rshift>,1,1,340611,295
18B,2,practice,R,8,4,740,460,R,1,<rshift>,1,1,341610,286
18B,2,practice,R,9,2,740,260,P,0,<rshift>,1,0,342615,298
18B,2,practice,R,10,3,540,460,R,1,<rshift>,1,1,343978,500
18B,3,test,R,1,1,540,260,R,1,<rshift>,1,1,348373,532
18B,3,test,R,2,4,740,460,R,1,<rshift>,1,1,349372,410
18B,3,test,R,3,4,740,460,R,1,<rshift>,1,1,350373,378
18B,3,test,R,4,2,740,260,R,1,<rshift>,1,1,351371,340
18B,3,test,R,5,4,740,460,R,1,<rshift>,1,1,352372,315
18B,3,test,R,6,1,540,260,P,0,<rshift>,1,0,353373,308
18B,3,test,R,7,4,740,460,R,1,<rshift>,1,1,354374,308
18B,3,test,R,8,4,740,460,R,1,<rshift>,1,1,355372,309
18B,3,test,R,9,2,740,260,P,0,NONE,0,1,356377,953
18B,3,test,R,10,4,740,460,R,1,<rshift>,1,1,357375,350
18B,3,test,R,11,1,540,260,P,0,NONE,0,1,358377,953
18B,3,test,R,12,1,540,260,R,1,<rshift>,1,1,359372,519
18B,3,test,R,13,1,540,260,R,1,<rshift>,1,1,360374,391
18B,3,test,R,14,1,540,260,R,1,<rshift>,1,1,361375,332
18B,3,test,R,15,2,740,260,R,1,<rshift>,1,1,362374,337
18B,3,test,R,16,3,540,460,R,1,<rshift>,1,1,363373,351
18B,3,test,R,17,2,740,260,R,1,<rshift>,1,1,364374,341
18B,3,test,R,18,4,740,460,R,1,<rshift>,1,1,365375,343
18B,3,test,R,19,2,740,260,R,1,<rshift>,1,1,366371,374
18B,3,test,R,20,4,740,460,P,0,NONE,0,1,367374,953
18B,3,test,R,21,4,740,460,R,1,<rshift>,1,1,368373,321
18B,3,test,R,22,2,740,260,R,1,<rshift>,1,1,369374,347
18B,3,test,R,23,1,540,260,R,1,<rshift>,1,1,370373,320
18B,3,test,R,24,4,740,460,R,1,<rshift>,1,1,371379,307
18B,3,test,R,25,4,740,460,R,1,<rshift>,1,1,372373,311
18B,3,test,R,26,2,740,260,R,1,<rshift>,1,1,373374,385
18B,3,test,R,27,4,740,460,R,1,<rshift>,1,1,374374,400
18B,3,test,R,28,4,740,460,R,1,<rshift>,1,1,375374,459
18B,3,test,R,29,3,540,460,R,1,<rshift>,1,1,376374,396
18B,3,test,R,30,1,540,260,R,1,<rshift>,1,1,377375,333
18B,3,test,R,31,2,740,260,R,1,<rshift>,1,1,378374,346
18B,3,test,R,32,3,540,460,R,1,<rshift>,1,1,379373,318
18B,3,test,R,33,1,540,260,R,1,<rshift>,1,1,380369,370
18B,3,test,R,34,1,540,260,R,1,<rshift>,1,1,381373,323
18B,3,test,R,35,3,540,460,R,1,<rshift>,1,1,382376,301
18B,3,test,R,36,3,540,460,R,1,<rshift>,1,1,383375,284
18B,3,test,R,37,3,540,460,R,1,<rshift>,1,1,384372,275
18B,3,test,R,38,4,740,460,R,1,<rshift>,1,1,385373,318
18B,3,test,R,39,1,540,260,R,1,<rshift>,1,1,386373,305
18B,3,test,R,40,4,740,460,R,1,<rshift>,1,1,387373,293
18B,3,test,R,41,3,540,460,R,1,<rshift>,1,1,388371,288
18B,3,test,R,42,4,740,460,R,1,<rshift>,1,1,389372,262
18B,3,test,R,43,4,740,460,P,0,<rshift>,1,0,390372,370
18B,3,test,R,44,1,540,260,P,0,<rshift>,1,0,391373,310
18B,3,test,R,45,1,540,260,R,1,<rshift>,1,1,392374,428
18B,3,test,R,46,2,740,260,P,0,NONE,0,1,393373,952
18B,3,test,R,47,2,740,260,P,0,NONE,0,1,394372,951
18B,3,test,R,48,3,540,460,R,1,<rshift>,1,1,395373,420
18B,3,test,R,49,2,740,260,R,1,<rshift>,1,1,396375,516
18B,3,test,R,50,4,740,460,P,0,NONE,0,1,397375,953
18B,3,test,R,51,1,540,260,R,1,<rshift>,1,1,398374,450
18B,3,test,R,52,2,740,260,R,1,<rshift>,1,1,399371,369
18B,3,test,R,53,1,540,260,R,1,<rshift>,1,1,400374,432
18B,3,test,R,54,3,540,460,R,1,<rshift>,1,1,401372,381
18B,3,test,R,55,4,740,460,P,0,NONE,0,1,402373,952
18B,3,test,R,56,1,540,260,R,1,<rshift>,1,1,403373,395
18B,3,test,R,57,2,740,260,R,1,<rshift>,1,1,404373,448
18B,3,test,R,58,1,540,260,R,1,<rshift>,1,1,405371,481
18B,3,test,R,59,4,740,460,R,1,<rshift>,1,1,406371,403
18B,3,test,R,60,1,540,260,R,1,<rshift>,1,1,407374,377
18B,3,test,R,61,2,740,260,R,1,<rshift>,1,1,408373,338
18B,3,test,R,62,1,540,260,R,1,<rshift>,1,1,409373,326
18B,3,test,R,63,2,740,260,R,1,<rshift>,1,1,410374,296
18B,3,test,R,64,1,540,260,R,1,<rshift>,1,1,411377,287
18B,3,test,R,65,2,740,260,R,1,<rshift>,1,1,412375,242
18B,3,test,R,66,4,740,460,R,1,<rshift>,1,1,413376,434
18B,3,test,R,67,3,540,460,P,0,NONE,0,1,414375,953
18B,3,test,R,68,1,540,260,P,0,<rshift>,1,0,415373,304
18B,3,test,R,69,3,540,460,R,1,<rshift>,1,1,416375,413
18B,3,test,R,70,4,740,460,R,1,<rshift>,1,1,417373,444
18B,3,test,R,71,4,740,460,R,1,<rshift>,1,1,418371,368
18B,3,test,R,72,4,740,460,R,1,<rshift>,1,1,419375,312
18B,3,test,R,73,2,740,260,P,0,NONE,0,1,420372,953
18B,3,test,R,74,4,740,460,R,1,<rshift>,1,1,421371,426
18B,3,test,R,75,4,740,460,R,1,<rshift>,1,1,422372,383
18B,3,test,R,76,2,740,260,R,1,<rshift>,1,1,423374,435
18B,3,test,R,77,2,740,260,R,1,<rshift>,1,1,424374,343
18B,3,test,R,78,3,540,460,R,1,<rshift>,1,1,425376,488
18B,3,test,R,79,4,740,460,P,0,NONE,0,1,426372,952
18B,3,test,R,80,2,740,260,P,0,NONE,0,1,427373,953
18B,3,test,R,81,3,540,460,R,1,<rshift>,1,1,428372,303
18B,3,test,R,82,4,740,460,P,0,NONE,0,1,429373,952
18B,3,test,R,83,1,540,260,R,1,<rshift>,1,1,430372,291
18B,3,test,R,84,4,740,460,R,1,<rshift>,1,1,431377,468
18B,3,test,R,85,4,740,460,R,1,<rshift>,1,1,432373,368
18B,3,test,R,86,1,540,260,R,1,<rshift>,1,1,433375,358
18B,3,test,R,87,2,740,260,R,1,<rshift>,1,1,434376,330
18B,3,test,R,88,2,740,260,R,1,<rshift>,1,1,435375,335
18B,3,test,R,89,2,740,260,R,1,<rshift>,1,1,436380,303
18B,3,test,R,90,2,740,260,P,0,NONE,0,1,437374,952
18B,3,test,R,91,4,740,460,R,1,<rshift>,1,1,438373,301
18B,3,test,R,92,4,740,460,R,1,<rshift>,1,1,439373,386
18B,3,test,R,93,2,740,260,R,1,<rshift>,1,1,440374,430
18B,3,test,R,94,1,540,260,R,1,<rshift>,1,1,441373,304
18B,3,test,R,95,2,740,260,R,1,<rshift>,1,1,442372,346
18B,3,test,R,96,2,740,260,R,1,<rshift>,1,1,443370,352
18B,3,test,R,97,4,740,460,R,1,<rshift>,1,1,444373,378
18B,3,test,R,98,4,740,460,R,1,<rshift>,1,1,445372,357
18B,3,test,R,99,1,540,260,R,1,<rshift>,1,1,446374,452
18B,3,test,R,100,1,540,260,R,1,<rshift>,1,1,447372,355
18B,3,test,R,101,2,740,260,R,1,<rshift>,1,1,448375,337
18B,3,test,R,102,2,740,260,R,1,<rshift>,1,1,449372,274
18B,3,test,R,103,2,740,260,P,0,NONE,0,1,450373,952
18B,3,test,R,104,1,540,260,R,1,<rshift>,1,1,451374,359
18B,3,test,R,105,1,540,260,P,0,NONE,0,1,452372,953
18B,3,test,R,106,2,740,260,R,1,<rshift>,1,1,453376,394
18B,3,test,R,107,2,740,260,R,1,<rshift>,1,1,454373,379
18B,3,test,R,108,1,540,260,R,1,<rshift>,1,1,455374,387
18B,3,test,R,109,3,540,460,P,0,NONE,0,1,456377,953
18B,3,test,R,110,4,740,460,R,1,<rshift>,1,1,457371,362
18B,3,test,R,111,2,740,260,R,1,<rshift>,1,1,458373,400
18B,3,test,R,112,3,540,460,R,1,<rshift>,1,1,459375,444
18B,3,test,R,113,4,740,460,R,1,<rshift>,1,1,460374,377
18B,3,test,R,114,1,540,260,P,0,NONE,0,1,461371,951
18B,3,test,R,115,3,540,460,R,1,<rshift>,1,1,462373,484
18B,3,test,R,116,1,540,260,R,1,<rshift>,1,1,463374,458
18B,3,test,R,117,4,740,460,R,1,<rshift>,1,1,464375,440
18B,3,test,R,118,1,540,260,R,1,<rshift>,1,1,465373,397
18B,3,test,R,119,2,740,260,R,1,<rshift>,1,1,466371,385
18B,3,test,R,120,4,740,460,P,0,<rshift>,1,0,467374,703
18B,3,test,R,121,1,540,260,P,0,NONE,0,1,468374,952
18B,3,test,R,122,3,540,460,P,0,NONE,0,1,469370,952
18B,3,test,R,123,3,540,460,R,1,<rshift>,1,1,470374,517
18B,3,test,R,124,1,540,260,R,1,<rshift>,1,1,471372,481
18B,3,test,R,125,1,540,260,R,1,<rshift>,1,1,472371,414
18B,3,test,R,126,1,540,260,R,1,<rshift>,1,1,473375,340
18B,3,test,R,127,3,540,460,R,1,<rshift>,1,1,474377,375
18B,3,test,R,128,1,540,260,R,1,<rshift>,1,1,475374,301
18B,3,test,R,129,4,740,460,R,1,<rshift>,1,1,476371,409
18B,3,test,R,130,4,740,460,P,0,NONE,0,1,477376,953
18B,3,test,R,131,1,540,260,P,0,NONE,0,1,478374,952
18B,3,test,R,132,1,540,260,R,1,<rshift>,1,1,479373,520
18B,3,test,R,133,3,540,460,R,1,<rshift>,1,1,480375,341
18B,3,test,R,134,2,740,260,R,1,<rshift>,1,1,481372,316
18B,3,test,R,135,3,540,460,R,1,<rshift>,1,1,482376,339
18B,3,test,R,136,1,540,260,R,1,<rshift>,1,1,483373,313
18B,3,test,R,137,3,540,460,R,1,<rshift>,1,1,484378,358
18B,3,test,R,138,2,740,260,R,1,<rshift>,1,1,485376,455
18B,3,test,R,139,4,740,460,P,0,NONE,0,1,486373,954
18B,3,test,R,140,1,540,260,R,1,<rshift>,1,1,487377,358
18B,3,test,R,141,3,540,460,R,1,<rshift>,1,1,488373,394
18B,3,test,R,142,1,540,260,P,0,NONE,0,1,489371,953
18B,3,test,R,143,4,740,460,R,1,<rshift>,1,1,490375,343
18B,3,test,R,144,2,740,260,R,1,<rshift>,1,1,491374,402
18B,3,test,R,145,3,540,460,P,0,<rshift>,1,0,492373,398
18B,3,test,R,146,2,740,260,R,1,<rshift>,1,1,493373,342
18B,3,test,R,147,2,740,260,R,1,<rshift>,1,1,494374,379
18B,3,test,R,148,2,740,260,R,1,<rshift>,1,1,495379,405
18B,3,test,R,149,3,540,460,R,1,<rshift>,1,1,496371,432
18B,3,test,R,150,3,540,460,R,1,<rshift>,1,1,497372,409
18B,3,test,R,151,1,540,260,R,1,<rshift>,1,1,498372,400
18B,3,test,R,152,2,740,260,R,1,<rshift>,1,1,499371,339
18B,3,test,R,153,4,740,460,R,1,<rshift>,1,1,500376,290
18B,3,test,R,154,2,740,260,R,1,<rshift>,1,1,501371,319
18B,3,test,R,155,2,740,260,R,1,<rshift>,1,1,502373,291
18B,3,test,R,156,2,740,260,R,1,<rshift>,1,1,503374,334
18B,3,test,R,157,1,540,260,R,1,<rshift>,1,1,504371,408
18B,3,test,R,158,4,740,460,R,1,<rshift>,1,1,505371,354
18B,3,test,R,159,1,540,260,R,1,<rshift>,1,1,506372,393
18B,3,test,R,160,2,740,260,R,1,<rshift>,1,1,507373,302
18B,3,test,R,161,4,740,460,P,0,<rshift>,1,0,508373,280
18B,3,test,R,162,1,540,260,R,1,<rshift>,1,1,509372,323
18B,3,test,R,163,2,740,260,P,0,NONE,0,1,510376,952
18B,3,test,R,164,4,740,460,R,1,<rshift>,1,1,511372,286
18B,3,test,R,165,2,740,260,R,1,<rshift>,1,1,512373,483
18B,3,test,R,166,4,740,460,R,1,<rshift>,1,1,513376,404
18B,3,test,R,167,2,740,260,R,1,<rshift>,1,1,514372,357
18B,3,test,R,168,3,540,460,R,1,<rshift>,1,1,515375,457
18B,3,test,R,169,4,740,460,R,1,<rshift>,1,1,516371,393
18B,3,test,R,170,2,740,260,R,1,<rshift>,1,1,517372,371
18B,3,test,R,171,2,740,260,P,0,NONE,0,1,518374,952
18B,3,test,R,172,2,740,260,R,1,<rshift>,1,1,519374,396
18B,3,test,R,173,4,740,460,R,1,<rshift>,1,1,520374,375
18B,3,test,R,174,1,540,260,R,1,<rshift>,1,1,521377,444
18B,3,test,R,175,3,540,460,R,1,<rshift>,1,1,522374,401
18B,3,test,R,176,3,540,460,R,1,<rshift>,1,1,523376,362
18B,3,test,R,177,3,540,460,R,1,<rshift>,1,1,524374,332
18B,3,test,R,178,1,540,260,R,1,<rshift>,1,1,525374,562
18B,3,test,R,179,3,540,460,R,1,<rshift>,1,1,526372,406
18B,3,test,R,180,2,740,260,R,1,<rshift>,1,1,527376,353
18B,3,test,R,181,4,740,460,R,1,<rshift>,1,1,528375,371
18B,3,test,R,182,3,540,460,P,0,<rshift>,1,0,529374,353
18B,3,test,R,183,3,540,460,R,1,<rshift>,1,1,530373,425
18B,3,test,R,184,4,740,460,R,1,<rshift>,1,1,531375,469
18B,3,test,R,185,1,540,260,R,1,<rshift>,1,1,532372,400
18B,3,test,R,186,4,740,460,R,1,<rshift>,1,1,533374,345
18B,3,test,R,187,1,540,260,R,1,<rshift>,1,1,534376,347
18B,3,test,R,188,1,540,260,R,1,<rshift>,1,1,535373,366
18B,3,test,R,189,1,540,260,R,1,<rshift>,1,1,536374,323
18B,3,test,R,190,4,740,460,R,1,<rshift>,1,1,537376,434
18B,3,test,R,191,3,540,460,R,1,<rshift>,1,1,538373,401
18B,3,test,R,192,2,740,260,R,1,<rshift>,1,1,539373,330
18B,3,test,R,193,2,740,260,R,1,<rshift>,1,1,540372,364
18B,3,test,R,194,3,540,460,R,1,<rshift>,1,1,541374,406
18B,3,test,R,195,1,540,260,R,1,<rshift>,1,1,542373,399
18B,3,test,R,196,3,540,460,R,1,<rshift>,1,1,543372,399
18B,3,test,R,197,3,540,460,R,1,<rshift>,1,1,544372,426
18B,3,test,R,198,4,740,460,R,1,<rshift>,1,1,545376,375
18B,3,test,R,199,4,740,460,R,1,<rshift>,1,1,546372,359
18B,3,test,R,200,4,740,460,R,1,<rshift>,1,1,547374,400
18B,3,test,R,201,4,740,460,R,1,<rshift>,1,1,548372,392
18B,3,test,R,202,4,740,460,R,1,<rshift>,1,1,549378,339
18B,3,test,R,203,3,540,460,R,1,<rshift>,1,1,550376,472
18B,3,test,R,204,1,540,260,P,0,NONE,0,1,551378,952
18B,3,test,R,205,1,540,260,R,1,<rshift>,1,1,552372,329
18B,3,test,R,206,1,540,260,R,1,<rshift>,1,1,553378,378
18B,3,test,R,207,3,540,460,P,0,NONE,0,1,554375,953
18B,3,test,R,208,3,540,460,R,1,<rshift>,1,1,555374,323
18B,3,test,R,209,4,740,460,R,1,<rshift>,1,1,556376,367
18B,3,test,R,210,4,740,460,R,1,<rshift>,1,1,557373,350
18B,3,test,R,211,1,540,260,R,1,<rshift>,1,1,558373,457
18B,3,test,R,212,1,540,260,R,1,<rshift>,1,1,559373,519
18B,3,test,R,213,3,540,460,R,1,<rshift>,1,1,560372,437
18B,3,test,R,214,4,740,460,R,1,<rshift>,1,1,561375,640
18B,3,test,R,215,3,540,460,R,1,<rshift>,1,1,562374,532
18B,3,test,R,216,3,540,460,P,0,NONE,0,1,563377,953
18B,3,test,R,217,2,740,260,R,1,<rshift>,1,1,564373,425
18B,3,test,R,218,1,540,260,R,1,<rshift>,1,1,565373,395
18B,3,test,R,219,3,540,460,P,0,NONE,0,1,566374,953
18B,3,test,R,220,2,740,260,R,1,<rshift>,1,1,567375,372
18B,3,test,R,221,4,740,460,R,1,<rshift>,1,1,568375,468
18B,3,test,R,222,3,540,460,R,1,<rshift>,1,1,569372,517
18B,3,test,R,223,2,740,260,R,1,<rshift>,1,1,570373,438
18B,3,test,R,224,4,740,460,R,1,<rshift>,1,1,571375,378
18B,3,test,R,225,4,740,460,R,1,<rshift>,1,1,572372,351
18B,3,test,R,226,2,740,260,R,1,<rshift>,1,1,573373,340
18B,3,test,R,227,1,540,260,P,0,<rshift>,1,0,574371,314
18B,3,test,R,228,1,540,260,R,1,<rshift>,1,1,575371,443
18B,3,test,R,229,2,740,260,R,1,<rshift>,1,1,576377,367
18B,3,test,R,230,1,540,260,P,0,NONE,0,1,577372,952
18B,3,test,R,231,4,740,460,R,1,<rshift>,1,1,578373,392
18B,3,test,R,232,2,740,260,R,1,<rshift>,1,1,579374,391
18B,3,test,R,233,3,540,460,R,1,<rshift>,1,1,580375,457
18B,3,test,R,234,1,540,260,R,1,<rshift>,1,1,581371,453
18B,3,test,R,235,4,740,460,R,1,<rshift>,1,1,582373,454
18B,3,test,R,236,1,540,260,R,1,<rshift>,1,1,583372,320
18B,3,test,R,237,1,540,260,P,0,NONE,0,1,584371,952
18B,3,test,R,238,1,540,260,P,0,NONE,0,1,585371,953
18B,3,test,R,239,3,540,460,R,1,<rshift>,1,1,586373,440
18B,3,test,R,240,1,540,260,R,1,<rshift>,1,1,587374,537
18B,3,test,R,241,3,540,460,R,1,<rshift>,1,1,588376,494
18B,3,test,R,242,1,540,260,R,1,<rshift>,1,1,589373,458
18B,3,test,R,243,1,540,260,P,0,NONE,0,1,590373,953
18B,3,test,R,244,3,540,460,R,1,<rshift>,1,1,591372,353
18B,3,test,R,245,4,740,460,R,1,<rshift>,1,1,592372,466
18B,3,test,R,246,3,540,460,R,1,<rshift>,1,1,593371,528
18B,3,test,R,247,1,540,260,R,1,<rshift>,1,1,594376,496
18B,3,test,R,248,2,740,260,R,1,NONE,0,0,595376,953
18B,3,test,R,249,2,740,260,P,0,<rshift>,1,0,596373,371
18B,3,test,R,250,4,740,460,R,1,<rshift>,1,1,597376,292
18B,3,test,R,251,4,740,460,P,0,NONE,0,1,598377,952
18B,3,test,R,252,3,540,460,R,1,<rshift>,1,1,599373,446
18B,3,test,R,253,4,740,460,R,1,<rshift>,1,1,600374,497
18B,3,test,R,254,2,740,260,R,1,<rshift>,1,1,601374,445
18B,3,test,R,255,2,740,260,R,1,<rshift>,1,1,602372,455
18B,3,test,R,256,4,740,460,P,0,NONE,0,1,603373,952
18B,3,test,R,257,4,740,460,R,1,<rshift>,1,1,604376,368
18B,3,test,R,258,1,540,260,R,1,<rshift>,1,1,605375,433
18B,3,test,R,259,3,540,460,R,1,<rshift>,1,1,606374,471
18B,3,test,R,260,2,740,260,P,0,NONE,0,1,607373,953
18B,3,test,R,261,3,540,460,R,1,<rshift>,1,1,608372,517
18B,3,test,R,262,4,740,460,R,1,<rshift>,1,1,609373,485
18B,3,test,R,263,3,540,460,R,1,<rshift>,1,1,610370,425
18B,3,test,R,264,4,740,460,P,0,NONE,0,1,611374,952
18B,3,test,R,265,2,740,260,R,1,<rshift>,1,1,612374,402
18B,3,test,R,266,2,740,260,P,0,NONE,0,1,613373,952
18B,3,test,R,267,1,540,260,R,1,<rshift>,1,1,614379,443
18B,3,test,R,268,2,740,260,R,1,<rshift>,1,1,615373,489
18B,3,test,R,269,2,740,260,R,1,<rshift>,1,1,616378,441
18B,3,test,R,270,1,540,260,R,1,<rshift>,1,1,617374,409
18B,3,test,R,271,3,540,460,P,0,<rshift>,1,0,618371,396
18B,3,test,R,272,2,740,260,R,1,<rshift>,1,1,619374,355
18B,3,test,R,273,2,740,260,R,1,<rshift>,1,1,620374,388
18B,3,test,R,274,2,740,260,R,1,<rshift>,1,1,621371,328
18B,3,test,R,275,3,540,460,P,0,NONE,0,1,622376,953
18B,3,test,R,276,1,540,260,R,1,<rshift>,1,1,623374,357
18B,3,test,R,277,3,540,460,P,0,<rshift>,1,0,624373,371
18B,3,test,R,278,1,540,260,P,0,NONE,0,1,625373,952
18B,3,test,R,279,2,740,260,R,1,<rshift>,1,1,626374,450
18B,3,test,R,280,1,540,260,P,0,NONE,0,1,627372,954
18B,3,test,R,281,4,740,460,R,1,<rshift>,1,1,628375,329
18B,3,test,R,282,3,540,460,R,1,<rshift>,1,1,629373,461
18B,3,test,R,283,2,740,260,P,0,NONE,0,1,630374,952
18B,3,test,R,284,2,740,260,R,1,<rshift>,1,1,631374,427
18B,3,test,R,285,4,740,460,R,1,<rshift>,1,1,632371,470
18B,3,test,R,286,1,540,260,P,0,NONE,0,1,633372,952
18B,3,test,R,287,2,740,260,R,1,<rshift>,1,1,634371,312
18B,3,test,R,288,3,540,460,P,0,NONE,0,1,635373,954
18B,3,test,R,289,1,540,260,R,1,<rshift>,1,1,636373,466
18B,3,test,R,290,2,740,260,R,1,<rshift>,1,1,637374,466
18B,3,test,R,291,2,740,260,R,1,<rshift>,1,1,638372,464
18B,3,test,R,292,2,740,260,P,0,NONE,0,1,639374,952
18B,3,test,R,293,2,740,260,R,1,<rshift>,1,1,640375,426
18B,3,test,R,294,1,540,260,R,1,<rshift>,1,1,641371,518
18B,3,test,R,295,4,740,460,R,1,<rshift>,1,1,642374,429
18B,3,test,R,296,3,540,460,R,1,<rshift>,1,1,643378,401
18B,3,test,R,297,3,540,460,P,0,NONE,0,1,644372,952
18B,3,test,R,298,4,740,460,P,0,NONE,0,1,645373,952
18B,3,test,R,299,1,540,260,R,1,<rshift>,1,1,646375,519
18B,3,test,R,300,4,740,460,P,0,NONE,0,1,647372,953
