subnum,block,type,correctresponse,trial,choice,x,y,stim,present,response,responded,corr,starttime,rt
Control_TS_9A,0,practice,P,1,1,540,260,R,0,NONE,0,1,27406,953
Control_TS_9A,0,practice,P,2,1,540,260,P,1,<rshift>,1,1,28398,599
Control_TS_9A,0,practice,P,3,4,740,460,P,1,<rshift>,1,1,29399,473
Control_TS_9A,0,practice,P,4,3,540,460,P,1,<rshift>,1,1,30398,350
Control_TS_9A,0,practice,P,5,1,540,260,P,1,<rshift>,1,1,31400,295
Control_TS_9A,0,practice,P,6,1,540,260,R,0,NONE,0,1,32400,953
Control_TS_9A,0,practice,P,7,1,540,260,P,1,<rshift>,1,1,33405,609
Control_TS_9A,0,practice,P,8,1,540,260,P,1,<rshift>,1,1,34399,383
Control_TS_9A,0,practice,P,9,2,740,260,P,1,<rshift>,1,1,35400,372
Control_TS_9A,0,practice,P,10,4,740,460,P,1,<rshift>,1,1,36398,339
Control_TS_9A,1,test,P,1,1,540,260,P,1,<rshift>,1,1,43992,435
Control_TS_9A,1,test,P,2,2,740,260,R,0,NONE,0,1,44998,952
Control_TS_9A,1,test,P,3,2,740,260,P,1,<rshift>,1,1,45994,379
Control_TS_9A,1,test,P,4,4,740,460,R,0,NONE,0,1,46992,953
Control_TS_9A,1,test,P,5,2,740,260,R,0,NONE,0,1,47992,953
Control_TS_9A,1,test,P,6,4,740,460,R,0,NONE,0,1,48995,951
Control_TS_9A,1,test,P,7,2,740,260,P,1,<rshift>,1,1,49998,362
Control_TS_9A,1,test,P,8,3,540,460,P,1,<rshift>,1,1,50995,357
Control_TS_9A,1,test,P,9,2,740,260,R,0,NONE,0,1,51991,952
Control_TS_9A,1,test,P,10,4,740,460,P,1,<rshift>,1,1,52989,400
Control_TS_9A,1,test,P,11,1,540,260,P,1,<rshift>,1,1,53996,310
Control_TS_9A,1,test,P,12,4,740,460,P,1,<rshift>,1,1,54994,401
Control_TS_9A,1,test,P,13,1,540,260,R,0,NONE,0,1,55997,952
Control_TS_9A,1,test,P,14,1,540,260,P,1,<rshift>,1,1,56998,403
Control_TS_9A,1,test,P,15,4,740,460,P,1,<rshift>,1,1,57993,421
Control_TS_9A,1,test,P,16,3,540,460,P,1,<rshift>,1,1,58996,376
Control_TS_9A,1,test,P,17,3,540,460,P,1,<rshift>,1,1,59994,405
Control_TS_9A,1,test,P,18,1,540,260,R,0,NONE,0,1,60991,953
Control_TS_9A,1,test,P,19,1,540,260,R,0,NONE,0,1,61995,954
Control_TS_9A,1,test,P,20,3,540,460,P,1,<rshift>,1,1,62992,456
Control_TS_9A,1,test,P,21,3,540,460,P,1,<rshift>,1,1,63997,406
Control_TS_9A,1,test,P,22,4,740,460,P,1,<rshift>,1,1,64997,435
Control_TS_9A,1,test,P,23,4,740,460,R,0,NONE,0,1,65997,952
Control_TS_9A,1,test,P,24,4,740,460,P,1,<rshift>,1,1,66981,365
Control_TS_9A,1,test,P,25,4,740,460,P,1,<rshift>,1,1,67994,374
Control_TS_9A,1,test,P,26,4,740,460,P,1,<rshift>,1,1,68996,401
Control_TS_9A,1,test,P,27,1,540,260,P,1,<rshift>,1,1,69997,408
Control_TS_9A,1,test,P,28,2,740,260,P,1,<rshift>,1,1,70999,572
Control_TS_9A,1,test,P,29,3,540,460,P,1,<rshift>,1,1,71994,384
Control_TS_9A,1,test,P,30,3,540,460,P,1,<rshift>,1,1,72993,303
Control_TS_9A,1,test,P,31,2,740,260,P,1,<rshift>,1,1,73996,280
Control_TS_9A,1,test,P,32,2,740,260,P,1,<rshift>,1,1,74995,332
Control_TS_9A,1,test,P,33,2,740,260,P,1,<rshift>,1,1,75994,359
Control_TS_9A,1,test,P,34,2,740,260,R,0,NONE,0,1,76990,953
Control_TS_9A,1,test,P,35,2,740,260,R,0,NONE,0,1,77993,953
Control_TS_9A,1,test,P,36,3,540,460,P,1,<rshift>,1,1,78995,417
Control_TS_9A,1,test,P,37,1,540,260,P,1,<rshift>,1,1,79994,410
Control_TS_9A,1,test,P,38,1,540,260,P,1,<rshift>,1,1,80993,479
Control_TS_9A,1,test,P,39,3,540,460,P,1,<rshift>,1,1,81996,376
Control_TS_9A,1,test,P,40,1,540,260,P,1,<rshift>,1,1,82994,318
Control_TS_9A,1,test,P,41,4,740,460,P,1,<rshift>,1,1,83992,323
Control_TS_9A,1,test,P,42,1,540,260,P,1,<rshift>,1,1,84995,332
Control_TS_9A,1,test,P,43,4,740,460,R,0,<rshift>,1,0,85991,333
Control_TS_9A,1,test,P,44,1,540,260,P,1,<rshift>,1,1,86996,466
Control_TS_9A,1,test,P,45,4,740,460,P,1,<rshift>,1,1,87990,532
Control_TS_9A,1,test,P,46,1,540,260,P,1,<rshift>,1,1,88998,421
Control_TS_9A,1,test,P,47,2,740,260,R,0,NONE,0,1,89994,953
Control_TS_9A,1,test,P,48,3,540,460,P,1,<rshift>,1,1,90992,482
Control_TS_9A,1,test,P,49,1,540,260,P,1,<rshift>,1,1,91995,332
Control_TS_9A,1,test,P,50,4,740,460,P,1,<rshift>,1,1,92992,443
Control_TS_9A,1,test,P,51,4,740,460,R,0,NONE,0,1,93992,953
Control_TS_9A,1,test,P,52,3,540,460,P,1,<rshift>,1,1,94998,458
Control_TS_9A,1,test,P,53,2,740,260,P,1,<rshift>,1,1,95996,363
Control_TS_9A,1,test,P,54,1,540,260,P,1,<rshift>,1,1,96993,311
Control_TS_9A,1,test,P,55,1,540,260,P,1,<rshift>,1,1,97995,334
Control_TS_9A,1,test,P,56,2,740,260,P,1,<rshift>,1,1,98993,441
Control_TS_9A,1,test,P,57,3,540,460,R,0,NONE,0,1,99994,953
Control_TS_9A,1,test,P,58,1,540,260,P,1,<rshift>,1,1,100992,324
Control_TS_9A,1,test,P,59,1,540,260,P,1,<rshift>,1,1,101993,377
Control_TS_9A,1,test,P,60,1,540,260,P,1,<rshift>,1,1,102997,333
Control_TS_9A,1,test,P,61,4,740,460,P,1,<rshift>,1,1,103996,449
Control_TS_9A,1,test,P,62,1,540,260,P,1,<rshift>,1,1,104991,324
Control_TS_9A,1,test,P,63,2,740,260,P,1,<rshift>,1,1,105993,333
Control_TS_9A,1,test,P,64,3,540,460,P,1,<rshift>,1,1,106992,295
Control_TS_9A,1,test,P,65,3,540,460,P,1,<rshift>,1,1,107992,471
Control_TS_9A,1,test,P,66,3,540,460,P,1,<rshift>,1,1,108998,368
Control_TS_9A,1,test,P,67,4,740,460,P,1,<rshift>,1,1,109994,339
Control_TS_9A,1,test,P,68,3,540,460,P,1,<rshift>,1,1,110992,351
Control_TS_9A,1,test,P,69,4,740,460,P,1,<rshift>,1,1,111992,335
Control_TS_9A,1,test,P,70,2,740,260,R,0,NONE,0,1,112998,953
Control_TS_9A,1,test,P,71,2,740,260,R,0,NONE,0,1,113995,953
Control_TS_9A,1,test,P,72,4,740,460,P,1,<rshift>,1,1,114993,353
Control_TS_9A,1,test,P,73,2,740,260,R,0,NONE,0,1,115994,953
Control_TS_9A,1,test,P,74,3,540,460,R,0,NONE,0,1,116994,953
Control_TS_9A,1,test,P,75,3,540,460,R,0,NONE,0,1,117995,953
Control_TS_9A,1,test,P,76,4,740,460,P,1,<rshift>,1,1,118996,350
Control_TS_9A,1,test,P,77,1,540,260,R,0,<rshift>,1,0,119993,348
Control_TS_9A,1,test,P,78,4,740,460,P,1,<rshift>,1,1,120992,350
Control_TS_9A,1,test,P,79,1,540,260,P,1,<rshift>,1,1,121993,464
Control_TS_9A,1,test,P,80,3,540,460,P,1,<rshift>,1,1,122991,530
Control_TS_9A,1,test,P,81,1,540,260,R,0,NONE,0,1,123997,953
Control_TS_9A,1,test,P,82,3,540,460,P,1,<rshift>,1,1,124994,449
Control_TS_9A,1,test,P,83,2,740,260,P,1,<rshift>,1,1,125993,329
Control_TS_9A,1,test,P,84,1,540,260,R,0,NONE,0,1,126996,953
Control_TS_9A,1,test,P,85,2,740,260,P,1,<rshift>,1,1,127999,415
Control_TS_9A,1,test,P,86,4,740,460,P,1,<rshift>,1,1,128992,369
Control_TS_9A,1,test,P,87,4,740,460,P,1,<rshift>,1,1,129994,372
Control_TS_9A,1,test,P,88,4,740,460,P,1,<rshift>,1,1,130998,368
Control_TS_9A,1,test,P,89,2,740,260,P,1,<rshift>,1,1,131993,355
Control_TS_9A,1,test,P,90,3,540,460,P,1,<rshift>,1,1,132995,403
Control_TS_9A,1,test,P,91,1,540,260,P,1,<rshift>,1,1,133995,361
Control_TS_9A,1,test,P,92,2,740,260,P,1,<rshift>,1,1,134995,337
Control_TS_9A,1,test,P,93,3,540,460,P,1,<rshift>,1,1,135993,399
Control_TS_9A,1,test,P,94,2,740,260,P,1,<rshift>,1,1,136993,332
Control_TS_9A,1,test,P,95,2,740,260,P,1,<rshift>,1,1,137995,301
Control_TS_9A,1,test,P,96,3,540,460,P,1,<rshift>,1,1,138995,320
Control_TS_9A,1,test,P,97,1,540,260,P,1,<rshift>,1,1,139996,301
Control_TS_9A,1,test,P,98,3,540,460,P,1,<rshift>,1,1,140993,332
Control_TS_9A,1,test,P,99,3,540,460,R,0,NONE,0,1,141996,952
Control_TS_9A,1,test,P,100,4,740,460,P,1,<rshift>,1,1,142995,381
Control_TS_9A,1,test,P,101,2,740,260,P,1,<rshift>,1,1,143996,424
Control_TS_9A,1,test,P,102,4,740,460,P,1,<rshift>,1,1,144992,475
Control_TS_9A,1,test,P,103,4,740,460,P,1,<rshift>,1,1,145996,364
Control_TS_9A,1,test,P,104,4,740,460,R,0,<rshift>,1,0,146998,495
Control_TS_9A,1,test,P,105,1,540,260,P,1,<rshift>,1,1,147995,438
Control_TS_9A,1,test,P,106,3,540,460,P,1,<rshift>,1,1,148993,532
Control_TS_9A,1,test,P,107,2,740,260,R,0,NONE,0,1,149995,953
Control_TS_9A,1,test,P,108,1,540,260,R,0,NONE,0,1,150993,954
Control_TS_9A,1,test,P,109,3,540,460,P,1,<rshift>,1,1,151992,381
Control_TS_9A,1,test,P,110,1,540,260,P,1,<rshift>,1,1,152996,399
Control_TS_9A,1,test,P,111,1,540,260,P,1,<rshift>,1,1,153995,420
Control_TS_9A,1,test,P,112,1,540,260,P,1,<rshift>,1,1,154992,457
Control_TS_9A,1,test,P,113,4,740,460,P,1,<rshift>,1,1,155999,637
Control_TS_9A,1,test,P,114,2,740,260,P,1,<rshift>,1,1,156994,426
Control_TS_9A,1,test,P,115,4,740,460,P,1,<rshift>,1,1,157995,380
Control_TS_9A,1,test,P,116,2,740,260,P,1,<rshift>,1,1,158994,355
Control_TS_9A,1,test,P,117,1,540,260,R,0,NONE,0,1,159994,953
Control_TS_9A,1,test,P,118,3,540,460,P,1,<rshift>,1,1,160992,563
Control_TS_9A,1,test,P,119,2,740,260,P,1,<rshift>,1,1,161995,325
Control_TS_9A,1,test,P,120,3,540,460,P,1,<rshift>,1,1,162988,450
Control_TS_9A,1,test,P,121,2,740,260,P,1,<rshift>,1,1,163991,473
Control_TS_9A,1,test,P,122,3,540,460,P,1,<rshift>,1,1,164993,534
Control_TS_9A,1,test,P,123,4,740,460,P,1,<rshift>,1,1,165998,381
Control_TS_9A,1,test,P,124,2,740,260,P,1,<rshift>,1,1,166994,331
Control_TS_9A,1,test,P,125,3,540,460,P,1,<rshift>,1,1,167997,332
Control_TS_9A,1,test,P,126,1,540,260,P,1,<rshift>,1,1,168993,537
Control_TS_9A,1,test,P,127,3,540,460,P,1,<rshift>,1,1,169994,350
Control_TS_9A,1,test,P,128,2,740,260,P,1,<rshift>,1,1,170992,486
Control_TS_9A,1,test,P,129,3,540,460,P,1,<rshift>,1,1,171990,353
Control_TS_9A,1,test,P,130,2,740,260,P,1,<rshift>,1,1,172995,307
Control_TS_9A,1,test,P,131,3,540,460,R,0,<rshift>,1,0,173992,315
Control_TS_9A,1,test,P,132,4,740,460,P,1,<rshift>,1,1,174994,471
Control_TS_9A,1,test,P,133,4,740,460,P,1,<rshift>,1,1,175996,446
Control_TS_9A,1,test,P,134,2,740,260,R,0,NONE,0,1,176997,952
Control_TS_9A,1,test,P,135,4,740,460,P,1,<rshift>,1,1,177994,454
Control_TS_9A,1,test,P,136,1,540,260,P,1,<rshift>,1,1,178993,350
Control_TS_9A,1,test,P,137,4,740,460,P,1,<rshift>,1,1,179995,335
Control_TS_9A,1,test,P,138,1,540,260,P,1,<rshift>,1,1,180990,389
Control_TS_9A,1,test,P,139,3,540,460,R,0,<rshift>,1,0,181994,462
Control_TS_9A,1,test,P,140,1,540,260,P,1,<rshift>,1,1,182995,358
Control_TS_9A,1,test,P,141,3,540,460,P,1,<rshift>,1,1,183996,333
Control_TS_9A,1,test,P,142,4,740,460,P,1,<rshift>,1,1,184995,366
Control_TS_9A,1,test,P,143,1,540,260,R,0,<rshift>,1,0,185985,308
Control_TS_9A,1,test,P,144,3,540,460,P,1,<rshift>,1,1,186997,387
Control_TS_9A,1,test,P,145,2,740,260,P,1,<rshift>,1,1,187995,332
Control_TS_9A,1,test,P,146,4,740,460,P,1,<rshift>,1,1,188992,448
Control_TS_9A,1,test,P,147,4,740,460,P,1,<rshift>,1,1,189995,407
Control_TS_9A,1,test,P,148,3,540,460,P,1,<rshift>,1,1,190996,417
Control_TS_9A,1,test,P,149,4,740,460,P,1,<rshift>,1,1,191994,436
Control_TS_9A,1,test,P,150,2,740,260,P,1,<rshift>,1,1,192993,381
Control_TS_9A,1,test,P,151,2,740,260,P,1,<rshift>,1,1,193993,444
Control_TS_9A,1,test,P,152,4,740,460,R,0,NONE,0,1,194993,954
Control_TS_9A,1,test,P,153,3,540,460,P,1,<rshift>,1,1,195993,418
Control_TS_9A,1,test,P,154,4,740,460,R,0,NONE,0,1,196993,953
Control_TS_9A,1,test,P,155,2,740,260,P,1,<rshift>,1,1,197995,341
Control_TS_9A,1,test,P,156,3,540,460,R,0,NONE,0,1,198996,952
Control_TS_9A,1,test,P,157,1,540,260,P,1,<rshift>,1,1,199993,466
Control_TS_9A,1,test,P,158,3,540,460,P,1,<rshift>,1,1,200994,566
Control_TS_9A,1,test,P,159,3,540,460,P,1,<rshift>,1,1,201993,453
Control_TS_9A,1,test,P,160,4,740,460,R,0,NONE,0,1,202993,952
Control_TS_9A,1,test,P,161,4,740,460,P,1,<rshift>,1,1,203991,531
Control_TS_9A,1,test,P,162,1,540,260,P,1,<rshift>,1,1,204996,451
Control_TS_9A,1,test,P,163,4,740,460,P,1,<rshift>,1,1,205994,425
Control_TS_9A,1,test,P,164,4,740,460,R,0,NONE,0,1,206994,951
Control_TS_9A,1,test,P,165,2,740,260,P,1,<rshift>,1,1,207993,346
Control_TS_9A,1,test,P,166,1,540,260,P,1,<rshift>,1,1,208996,377
Control_TS_9A,1,test,P,167,2,740,260,P,1,<rshift>,1,1,209996,479
Control_TS_9A,1,test,P,168,3,540,460,P,1,<rshift>,1,1,210994,410
Control_TS_9A,1,test,P,169,1,540,260,P,1,<rshift>,1,1,211991,316
Control_TS_9A,1,test,P,170,4,740,460,P,1,<rshift>,1,1,212995,349
Control_TS_9A,1,test,P,171,4,740,460,P,1,<rshift>,1,1,213996,387
Control_TS_9A,1,test,P,172,2,740,260,P,1,<rshift>,1,1,214997,395
Control_TS_9A,1,test,P,173,1,540,260,P,1,<rshift>,1,1,216001,373
Control_TS_9A,1,test,P,174,2,740,260,P,1,<rshift>,1,1,216994,314
Control_TS_9A,1,test,P,175,1,540,260,P,1,<rshift>,1,1,217993,345
Control_TS_9A,1,test,P,176,3,540,460,P,1,<rshift>,1,1,218993,330
Control_TS_9A,1,test,P,177,3,540,460,P,1,<rshift>,1,1,219993,323
Control_TS_9A,1,test,P,178,2,740,260,P,1,<rshift>,1,1,220991,308
Control_TS_9A,1,test,P,179,1,540,260,P,1,<rshift>,1,1,221996,317
Control_TS_9A,1,test,P,180,4,740,460,P,1,<rshift>,1,1,222993,353
Control_TS_9A,1,test,P,181,3,540,460,P,1,<rshift>,1,1,223993,474
Control_TS_9A,1,test,P,182,2,740,260,P,1,<rshift>,1,1,224995,340
Control_TS_9A,1,test,P,183,4,740,460,P,1,<rshift>,1,1,225995,351
Control_TS_9A,1,test,P,184,2,740,260,P,1,<rshift>,1,1,226994,370
Control_TS_9A,1,test,P,185,1,540,260,P,1,<rshift>,1,1,227994,324
Control_TS_9A,1,test,P,186,3,540,460,R,0,<rshift>,1,0,228992,348
Control_TS_9A,1,test,P,187,4,740,460,P,1,<rshift>,1,1,229996,378
Control_TS_9A,1,test,P,188,3,540,460,P,1,<rshift>,1,1,230995,466
Control_TS_9A,1,test,P,189,1,540,260,P,1,<rshift>,1,1,231995,342
Control_TS_9A,1,test,P,190,3,540,460,R,0,<rshift>,1,0,232996,371
Control_TS_9A,1,test,P,191,1,540,260,P,1,<rshift>,1,1,233993,389
Control_TS_9A,1,test,P,192,1,540,260,P,1,<rshift>,1,1,234994,491
Control_TS_9A,1,test,P,193,3,540,460,P,1,<rshift>,1,1,235992,398
Control_TS_9A,1,test,P,194,4,740,460,P,1,<rshift>,1,1,236996,411
Control_TS_9A,1,test,P,195,3,540,460,P,1,<rshift>,1,1,237993,554
Control_TS_9A,1,test,P,196,4,740,460,P,1,<rshift>,1,1,238994,377
Control_TS_9A,1,test,P,197,4,740,460,P,1,<rshift>,1,1,239993,402
Control_TS_9A,1,test,P,198,4,740,460,P,1,<rshift>,1,1,240992,345
Control_TS_9A,1,test,P,199,2,740,260,P,1,<rshift>,1,1,241993,417
Control_TS_9A,1,test,P,200,2,740,260,P,1,<rshift>,1,1,242997,360
Control_TS_9A,1,test,P,201,2,740,260,P,1,<rshift>,1,1,243997,360
Control_TS_9A,1,test,P,202,1,540,260,R,0,NONE,0,1,244993,953
Control_TS_9A,1,test,P,203,1,540,260,P,1,<rshift>,1,1,246001,427
Control_TS_9A,1,test,P,204,2,740,260,P,1,<rshift>,1,1,246999,435
Control_TS_9A,1,test,P,205,1,540,260,P,1,<rshift>,1,1,247997,424
Control_TS_9A,1,test,P,206,3,540,460,R,0,NONE,0,1,248996,952
Control_TS_9A,1,test,P,207,1,540,260,P,1,<rshift>,1,1,249994,378
Control_TS_9A,1,test,P,208,3,540,460,P,1,<rshift>,1,1,250997,457
Control_TS_9A,1,test,P,209,3,540,460,P,1,<rshift>,1,1,251992,460
Control_TS_9A,1,test,P,210,3,540,460,P,1,<rshift>,1,1,252995,729
Control_TS_9A,1,test,P,211,3,540,460,R,0,NONE,0,1,253997,952
Control_TS_9A,1,test,P,212,1,540,260,P,1,<rshift>,1,1,254996,466
Control_TS_9A,1,test,P,213,1,540,260,P,1,<rshift>,1,1,255990,409
Control_TS_9A,1,test,P,214,3,540,460,P,1,<rshift>,1,1,256995,535
Control_TS_9A,1,test,P,215,1,540,260,P,1,<rshift>,1,1,257994,555
Control_TS_9A,1,test,P,216,4,740,460,R,0,NONE,0,1,258994,953
Control_TS_9A,1,test,P,217,4,740,460,P,1,<rshift>,1,1,259992,456
Control_TS_9A,1,test,P,218,3,540,460,P,1,<rshift>,1,1,260992,377
Control_TS_9A,1,test,P,219,1,540,260,P,1,<rshift>,1,1,261998,389
Control_TS_9A,1,test,P,220,4,740,460,P,1,<rshift>,1,1,262991,603
Control_TS_9A,1,test,P,221,3,540,460,P,1,<rshift>,1,1,263996,401
Control_TS_9A,1,test,P,222,2,740,260,P,1,<rshift>,1,1,264993,408
Control_TS_9A,1,test,P,223,2,740,260,P,1,<rshift>,1,1,265996,397
Control_TS_9A,1,test,P,224,1,540,260,P,1,<rshift>,1,1,266991,294
Control_TS_9A,1,test,P,225,1,540,260,P,1,<rshift>,1,1,267992,371
Control_TS_9A,1,test,P,226,2,740,260,R,0,NONE,0,1,268997,954
Control_TS_9A,1,test,P,227,3,540,460,R,0,NONE,0,1,269993,952
Control_TS_9A,1,test,P,228,4,740,460,P,1,<rshift>,1,1,270992,403
Control_TS_9A,1,test,P,229,1,540,260,P,1,<rshift>,1,1,271992,310
Control_TS_9A,1,test,P,230,4,740,460,P,1,<rshift>,1,1,272995,384
Control_TS_9A,1,test,P,231,1,540,260,P,1,<rshift>,1,1,273991,390
Control_TS_9A,1,test,P,232,2,740,260,R,0,<rshift>,1,0,274998,333
Control_TS_9A,1,test,P,233,4,740,460,R,0,NONE,0,1,275983,953
Control_TS_9A,1,test,P,234,3,540,460,P,1,<rshift>,1,1,276988,428
Control_TS_9A,1,test,P,235,4,740,460,P,1,<rshift>,1,1,277995,390
Control_TS_9A,1,test,P,236,3,540,460,P,1,<rshift>,1,1,278991,399
Control_TS_9A,1,test,P,237,3,540,460,R,0,<rshift>,1,0,279993,399
Control_TS_9A,1,test,P,238,2,740,260,P,1,<rshift>,1,1,280993,359
Control_TS_9A,1,test,P,239,1,540,260,P,1,<rshift>,1,1,281996,398
Control_TS_9A,1,test,P,240,1,540,260,R,0,NONE,0,1,282994,953
Control_TS_9A,1,test,P,241,2,740,260,P,1,<rshift>,1,1,283990,394
Control_TS_9A,1,test,P,242,4,740,460,P,1,<rshift>,1,1,284993,391
Control_TS_9A,1,test,P,243,3,540,460,P,1,<rshift>,1,1,285998,547
Control_TS_9A,1,test,P,244,3,540,460,P,1,<rshift>,1,1,286995,399
Control_TS_9A,1,test,P,245,4,740,460,P,1,<rshift>,1,1,287997,373
Control_TS_9A,1,test,P,246,4,740,460,R,0,NONE,0,1,288993,953
Control_TS_9A,1,test,P,247,4,740,460,P,1,<rshift>,1,1,289993,425
Control_TS_9A,1,test,P,248,4,740,460,R,0,NONE,0,1,290999,953
Control_TS_9A,1,test,P,249,3,540,460,P,1,<rshift>,1,1,291993,400
Control_TS_9A,1,test,P,250,1,540,260,P,1,<rshift>,1,1,292994,602
Control_TS_9A,1,test,P,251,1,540,260,P,1,<rshift>,1,1,293993,497
Control_TS_9A,1,test,P,252,4,740,460,P,1,<rshift>,1,1,294994,545
Control_TS_9A,1,test,P,253,3,540,460,P,1,<rshift>,1,1,295994,434
Control_TS_9A,1,test,P,254,4,740,460,P,1,<rshift>,1,1,296997,386
Control_TS_9A,1,test,P,255,4,740,460,R,0,<rshift>,1,0,297997,392
Control_TS_9A,1,test,P,256,4,740,460,R,0,NONE,0,1,298993,952
Control_TS_9A,1,test,P,257,2,740,260,P,1,<rshift>,1,1,299994,396
Control_TS_9A,1,test,P,258,4,740,460,P,1,<rshift>,1,1,300994,536
Control_TS_9A,1,test,P,259,4,740,460,P,1,<rshift>,1,1,301990,459
Control_TS_9A,1,test,P,260,1,540,260,P,1,<rshift>,1,1,302993,534
Control_TS_9A,1,test,P,261,3,540,460,P,1,<rshift>,1,1,303992,418
Control_TS_9A,1,test,P,262,4,740,460,P,1,<rshift>,1,1,304995,409
Control_TS_9A,1,test,P,263,2,740,260,P,1,<rshift>,1,1,305996,442
Control_TS_9A,1,test,P,264,3,540,460,P,1,<rshift>,1,1,306997,366
Control_TS_9A,1,test,P,265,3,540,460,P,1,<rshift>,1,1,307999,425
Control_TS_9A,1,test,P,266,3,540,460,P,1,<rshift>,1,1,308995,420
Control_TS_9A,1,test,P,267,3,540,460,P,1,<rshift>,1,1,309996,363
Control_TS_9A,1,test,P,268,3,540,460,P,1,<rshift>,1,1,310995,406
Control_TS_9A,1,test,P,269,3,540,460,P,1,<rshift>,1,1,311994,416
Control_TS_9A,1,test,P,270,4,740,460,P,1,<rshift>,1,1,312991,535
Control_TS_9A,1,test,P,271,2,740,260,P,1,<rshift>,1,1,313993,423
Control_TS_9A,1,test,P,272,3,540,460,P,1,<rshift>,1,1,314993,460
Control_TS_9A,1,test,P,273,3,540,460,P,1,<rshift>,1,1,315992,529
Control_TS_9A,1,test,P,274,1,540,260,P,1,<rshift>,1,1,316996,451
Control_TS_9A,1,test,P,275,4,740,460,P,1,<rshift>,1,1,317994,536
Control_TS_9A,1,test,P,276,4,740,460,P,1,<rshift>,1,1,318994,430
Control_TS_9A,1,test,P,277,2,740,260,P,1,<rshift>,1,1,319991,500
Control_TS_9A,1,test,P,278,2,740,260,P,1,<rshift>,1,1,320994,382
Control_TS_9A,1,test,P,279,1,540,260,P,1,<rshift>,1,1,321996,403
Control_TS_9A,1,test,P,280,1,540,260,R,0,NONE,0,1,322994,952
Control_TS_9A,1,test,P,281,4,740,460,P,1,<rshift>,1,1,323993,378
Control_TS_9A,1,test,P,282,1,540,260,P,1,<rshift>,1,1,324991,362
Control_TS_9A,1,test,P,283,1,540,260,P,1,<rshift>,1,1,325993,473
Control_TS_9A,1,test,P,284,2,740,260,P,1,<rshift>,1,1,326992,354
Control_TS_9A,1,test,P,285,4,740,460,P,1,<rshift>,1,1,327993,373
Control_TS_9A,1,test,P,286,4,740,460,R,0,<rshift>,1,0,328992,388
Control_TS_9A,1,test,P,287,2,740,260,P,1,<rshift>,1,1,329994,472
Control_TS_9A,1,test,P,288,3,540,460,R,0,NONE,0,1,330995,953
Control_TS_9A,1,test,P,289,2,740,260,P,1,<rshift>,1,1,331992,352
Control_TS_9A,1,test,P,290,1,540,260,P,1,<rshift>,1,1,332994,374
Control_TS_9A,1,test,P,291,3,540,460,P,1,<rshift>,1,1,333995,392
Control_TS_9A,1,test,P,292,1,540,260,R,0,NONE,0,1,334992,953
Control_TS_9A,1,test,P,293,4,740,460,P,1,<rshift>,1,1,335992,528
Control_TS_9A,1,test,P,294,1,540,260,P,1,<rshift>,1,1,336993,411
Control_TS_9A,1,test,P,295,1,540,260,P,1,<rshift>,1,1,337998,403
Control_TS_9A,1,test,P,296,1,540,260,R,0,NONE,0,1,338994,953
Control_TS_9A,1,test,P,297,3,540,460,P,1,<rshift>,1,1,339996,408
Control_TS_9A,1,test,P,298,1,540,260,P,1,<rshift>,1,1,340992,446
Control_TS_9A,1,test,P,299,2,740,260,R,0,NONE,0,1,341996,952
Control_TS_9A,1,test,P,300,1,540,260,R,0,NONE,0,1,342996,953
Control_TS_9A,2,practice,R,1,3,540,460,P,0,NONE,0,1,361521,953
Control_TS_9A,2,practice,R,2,1,540,260,P,0,NONE,0,1,362522,952
Control_TS_9A,2,practice,R,3,4,740,460,R,1,<rshift>,1,1,363517,446
Control_TS_9A,2,practice,R,4,3,540,460,R,1,<rshift>,1,1,364522,375
Control_TS_9A,2,practice,R,5,4,740,460,R,1,<rshift>,1,1,365522,365
Control_TS_9A,2,practice,R,6,2,740,260,R,1,<rshift>,1,1,366520,338
Control_TS_9A,2,practice,R,7,4,740,460,R,1,<rshift>,1,1,367522,365
Control_TS_9A,2,practice,R,8,3,540,460,R,1,<rshift>,1,1,368520,531
Control_TS_9A,2,practice,R,9,4,740,460,R,1,<rshift>,1,1,369521,383
Control_TS_9A,2,practice,R,10,2,740,260,R,1,<rshift>,1,1,370520,426
Control_TS_9A,3,test,R,1,4,740,460,R,1,<rshift>,1,1,376539,473
Control_TS_9A,3,test,R,2,2,740,260,P,0,NONE,0,1,377540,953
Control_TS_9A,3,test,R,3,4,740,460,P,0,NONE,0,1,378545,953
Control_TS_9A,3,test,R,4,4,740,460,R,1,<rshift>,1,1,379542,468
Control_TS_9A,3,test,R,5,2,740,260,R,1,<rshift>,1,1,380543,442
Control_TS_9A,3,test,R,6,1,540,260,R,1,<rshift>,1,1,381540,440
Control_TS_9A,3,test,R,7,1,540,260,R,1,<rshift>,1,1,382541,376
Control_TS_9A,3,test,R,8,3,540,460,P,0,NONE,0,1,383546,952
Control_TS_9A,3,test,R,9,3,540,460,R,1,<rshift>,1,1,384541,435
Control_TS_9A,3,test,R,10,2,740,260,R,1,<rshift>,1,1,385542,533
Control_TS_9A,3,test,R,11,4,740,460,R,1,<rshift>,1,1,386539,379
Control_TS_9A,3,test,R,12,3,540,460,R,1,<rshift>,1,1,387541,373
Control_TS_9A,3,test,R,13,3,540,460,R,1,<rshift>,1,1,388541,393
Control_TS_9A,3,test,R,14,4,740,460,R,1,<rshift>,1,1,389542,417
Control_TS_9A,3,test,R,15,3,540,460,R,1,<rshift>,1,1,390538,388
Control_TS_9A,3,test,R,16,2,740,260,R,1,<rshift>,1,1,391542,368
Control_TS_9A,3,test,R,17,3,540,460,R,1,<rshift>,1,1,392543,340
Control_TS_9A,3,test,R,18,1,540,260,P,0,NONE,0,1,393545,953
Control_TS_9A,3,test,R,19,3,540,460,R,1,<rshift>,1,1,394541,396
Control_TS_9A,3,test,R,20,4,740,460,R,1,<rshift>,1,1,395541,350
Control_TS_9A,3,test,R,21,4,740,460,R,1,<rshift>,1,1,396545,414
Control_TS_9A,3,test,R,22,3,540,460,R,1,<rshift>,1,1,397551,538
Control_TS_9A,3,test,R,23,2,740,260,R,1,<rshift>,1,1,398544,353
Control_TS_9A,3,test,R,24,3,540,460,P,0,NONE,0,1,399542,952
Control_TS_9A,3,test,R,25,1,540,260,R,1,<rshift>,1,1,400542,388
Control_TS_9A,3,test,R,26,2,740,260,R,1,<rshift>,1,1,401539,348
Control_TS_9A,3,test,R,27,1,540,260,R,1,<rshift>,1,1,402542,371
Control_TS_9A,3,test,R,28,4,740,460,R,1,<rshift>,1,1,403540,404
Control_TS_9A,3,test,R,29,2,740,260,R,1,<rshift>,1,1,404538,335
Control_TS_9A,3,test,R,30,1,540,260,P,0,<rshift>,1,0,405538,276
Control_TS_9A,3,test,R,31,1,540,260,R,1,<rshift>,1,1,406542,459
Control_TS_9A,3,test,R,32,1,540,260,R,1,<rshift>,1,1,407541,400
Control_TS_9A,3,test,R,33,1,540,260,R,1,<rshift>,1,1,408541,402
Control_TS_9A,3,test,R,34,2,740,260,P,0,NONE,0,1,409544,953
Control_TS_9A,3,test,R,35,2,740,260,R,1,<rshift>,1,1,410541,479
Control_TS_9A,3,test,R,36,1,540,260,R,1,<rshift>,1,1,411539,404
Control_TS_9A,3,test,R,37,1,540,260,P,0,NONE,0,1,412544,953
Control_TS_9A,3,test,R,38,3,540,460,R,1,<rshift>,1,1,413538,397
Control_TS_9A,3,test,R,39,2,740,260,R,1,<rshift>,1,1,414540,468
Control_TS_9A,3,test,R,40,1,540,260,R,1,<rshift>,1,1,415544,453
Control_TS_9A,3,test,R,41,2,740,260,R,1,<rshift>,1,1,416543,498
Control_TS_9A,3,test,R,42,2,740,260,R,1,<rshift>,1,1,417546,419
Control_TS_9A,3,test,R,43,3,540,460,P,0,NONE,0,1,418539,952
Control_TS_9A,3,test,R,44,1,540,260,R,1,<rshift>,1,1,419541,322
Control_TS_9A,3,test,R,45,1,540,260,R,1,<rshift>,1,1,420538,411
Control_TS_9A,3,test,R,46,1,540,260,R,1,<rshift>,1,1,421538,500
Control_TS_9A,3,test,R,47,3,540,460,R,1,<rshift>,1,1,422539,544
Control_TS_9A,3,test,R,48,2,740,260,R,1,<rshift>,1,1,423546,454
Control_TS_9A,3,test,R,49,4,740,460,P,0,NONE,0,1,424539,952
Control_TS_9A,3,test,R,50,3,540,460,P,0,NONE,0,1,425538,952
Control_TS_9A,3,test,R,51,2,740,260,R,1,<rshift>,1,1,426544,460
Control_TS_9A,3,test,R,52,1,540,260,R,1,<rshift>,1,1,427542,336
Control_TS_9A,3,test,R,53,3,540,460,R,1,<rshift>,1,1,428542,386
Control_TS_9A,3,test,R,54,1,540,260,R,1,<rshift>,1,1,429540,346
Control_TS_9A,3,test,R,55,2,740,260,R,1,<rshift>,1,1,430540,534
Control_TS_9A,3,test,R,56,4,740,460,R,1,<rshift>,1,1,431542,326
Control_TS_9A,3,test,R,57,4,740,460,R,1,<rshift>,1,1,432543,423
Control_TS_9A,3,test,R,58,1,540,260,R,1,<rshift>,1,1,433542,535
Control_TS_9A,3,test,R,59,3,540,460,R,1,<rshift>,1,1,434540,399
Control_TS_9A,3,test,R,60,3,540,460,P,0,NONE,0,1,435542,953
Control_TS_9A,3,test,R,61,4,740,460,R,1,<rshift>,1,1,436542,370
Control_TS_9A,3,test,R,62,3,540,460,R,1,<rshift>,1,1,437543,540
Control_TS_9A,3,test,R,63,2,740,260,R,1,<rshift>,1,1,438538,448
Control_TS_9A,3,test,R,64,2,740,260,R,1,<rshift>,1,1,439540,401
Control_TS_9A,3,test,R,65,3,540,460,R,1,<rshift>,1,1,440546,346
Control_TS_9A,3,test,R,66,4,740,460,P,0,NONE,0,1,441544,952
Control_TS_9A,3,test,R,67,2,740,260,R,1,<rshift>,1,1,442539,344
Control_TS_9A,3,test,R,68,4,740,460,R,1,<rshift>,1,1,443541,389
Control_TS_9A,3,test,R,69,3,540,460,R,1,<rshift>,1,1,444540,363
Control_TS_9A,3,test,R,70,3,540,460,P,0,NONE,0,1,445538,953
Control_TS_9A,3,test,R,71,3,540,460,R,1,<rshift>,1,1,446539,533
Control_TS_9A,3,test,R,72,3,540,460,R,1,<rshift>,1,1,447544,404
Control_TS_9A,3,test,R,73,4,740,460,R,1,<rshift>,1,1,448541,486
Control_TS_9A,3,test,R,74,2,740,260,R,1,<rshift>,1,1,449542,410
Control_TS_9A,3,test,R,75,2,740,260,R,1,<rshift>,1,1,450541,380
Control_TS_9A,3,test,R,76,3,540,460,R,1,<rshift>,1,1,451545,408
Control_TS_9A,3,test,R,77,2,740,260,R,1,<rshift>,1,1,452539,452
Control_TS_9A,3,test,R,78,2,740,260,R,1,<rshift>,1,1,453543,337
Control_TS_9A,3,test,R,79,2,740,260,R,1,<rshift>,1,1,454542,319
Control_TS_9A,3,test,R,80,4,740,460,R,1,<rshift>,1,1,455539,333
Control_TS_9A,3,test,R,81,1,540,260,R,1,<rshift>,1,1,456532,312
Control_TS_9A,3,test,R,82,3,540,460,R,1,<rshift>,1,1,457540,373
Control_TS_9A,3,test,R,83,1,540,260,R,1,<rshift>,1,1,458530,340
Control_TS_9A,3,test,R,84,4,740,460,R,1,<rshift>,1,1,459543,378
Control_TS_9A,3,test,R,85,4,740,460,R,1,<rshift>,1,1,460543,395
Control_TS_9A,3,test,R,86,2,740,260,R,1,<rshift>,1,1,461538,292
Control_TS_9A,3,test,R,87,2,740,260,P,0,NONE,0,1,462545,953
Control_TS_9A,3,test,R,88,4,740,460,R,1,<rshift>,1,1,463542,358
Control_TS_9A,3,test,R,89,2,740,260,R,1,<rshift>,1,1,464542,338
Control_TS_9A,3,test,R,90,3,540,460,R,1,<rshift>,1,1,465542,386
Control_TS_9A,3,test,R,91,2,740,260,R,1,<rshift>,1,1,466540,378
Control_TS_9A,3,test,R,92,2,740,260,R,1,<rshift>,1,1,467542,410
Control_TS_9A,3,test,R,93,2,740,260,R,1,<rshift>,1,1,468539,476
Control_TS_9A,3,test,R,94,1,540,260,R,1,<rshift>,1,1,469543,401
Control_TS_9A,3,test,R,95,4,740,460,R,1,<rshift>,1,1,470540,379
Control_TS_9A,3,test,R,96,3,540,460,R,1,<rshift>,1,1,471537,342
Control_TS_9A,3,test,R,97,2,740,260,R,1,<rshift>,1,1,472540,319
Control_TS_9A,3,test,R,98,4,740,460,R,1,<rshift>,1,1,473544,343
Control_TS_9A,3,test,R,99,2,740,260,R,1,<rshift>,1,1,474544,342
Control_TS_9A,3,test,R,100,2,740,260,R,1,<rshift>,1,1,475542,393
Control_TS_9A,3,test,R,101,2,740,260,R,1,<rshift>,1,1,476542,373
Control_TS_9A,3,test,R,102,3,540,460,P,0,NONE,0,1,477542,953
Control_TS_9A,3,test,R,103,4,740,460,R,1,<rshift>,1,1,478540,451
Control_TS_9A,3,test,R,104,4,740,460,P,0,NONE,0,1,479541,953
Control_TS_9A,3,test,R,105,4,740,460,R,1,<rshift>,1,1,480538,446
Control_TS_9A,3,test,R,106,1,540,260,R,1,<rshift>,1,1,481542,451
Control_TS_9A,3,test,R,107,3,540,460,R,1,<rshift>,1,1,482539,413
Control_TS_9A,3,test,R,108,1,540,260,P,0,NONE,0,1,483544,953
Control_TS_9A,3,test,R,109,3,540,460,R,1,<rshift>,1,1,484540,358
Control_TS_9A,3,test,R,110,4,740,460,R,1,<rshift>,1,1,485540,351
Control_TS_9A,3,test,R,111,2,740,260,R,1,<rshift>,1,1,486540,399
Control_TS_9A,3,test,R,112,3,540,460,R,1,<rshift>,1,1,487541,550
Control_TS_9A,3,test,R,113,4,740,460,R,1,<rshift>,1,1,488544,415
Control_TS_9A,3,test,R,114,4,740,460,R,1,<rshift>,1,1,489543,341
Control_TS_9A,3,test,R,115,4,740,460,R,1,<rshift>,1,1,490538,364
Control_TS_9A,3,test,R,116,1,540,260,R,1,<rshift>,1,1,491541,335
Control_TS_9A,3,test,R,117,4,740,460,R,1,<rshift>,1,1,492540,348
Control_TS_9A,3,test,R,118,2,740,260,P,0,NONE,0,1,493545,954
Control_TS_9A,3,test,R,119,2,740,260,P,0,<rshift>,1,0,494541,400
Control_TS_9A,3,test,R,120,3,540,460,R,1,<rshift>,1,1,495542,371
Control_TS_9A,3,test,R,121,3,540,460,R,1,<rshift>,1,1,496537,437
Control_TS_9A,3,test,R,122,1,540,260,P,0,NONE,0,1,497542,953
Control_TS_9A,3,test,R,123,2,740,260,R,1,<rshift>,1,1,498540,426
Control_TS_9A,3,test,R,124,1,540,260,R,1,<rshift>,1,1,499542,444
Control_TS_9A,3,test,R,125,4,740,460,R,1,<rshift>,1,1,500539,411
Control_TS_9A,3,test,R,126,1,540,260,R,1,<rshift>,1,1,501541,472
Control_TS_9A,3,test,R,127,1,540,260,R,1,<rshift>,1,1,502540,454
Control_TS_9A,3,test,R,128,1,540,260,R,1,<rshift>,1,1,503542,466
Control_TS_9A,3,test,R,129,2,740,260,R,1,<rshift>,1,1,504543,488
Control_TS_9A,3,test,R,130,1,540,260,R,1,<rshift>,1,1,505541,341
Control_TS_9A,3,test,R,131,1,540,260,R,1,<rshift>,1,1,506540,314
Control_TS_9A,3,test,R,132,1,540,260,R,1,<rshift>,1,1,507541,456
Control_TS_9A,3,test,R,133,3,540,460,R,1,<rshift>,1,1,508540,358
Control_TS_9A,3,test,R,134,4,740,460,R,1,<rshift>,1,1,509542,349
Control_TS_9A,3,test,R,135,2,740,260,R,1,<rshift>,1,1,510540,325
Control_TS_9A,3,test,R,136,4,740,460,R,1,<rshift>,1,1,511541,373
Control_TS_9A,3,test,R,137,3,540,460,P,0,NONE,0,1,512544,953
Control_TS_9A,3,test,R,138,4,740,460,P,0,NONE,0,1,513532,953
Control_TS_9A,3,test,R,139,1,540,260,R,1,<rshift>,1,1,514532,481
Control_TS_9A,3,test,R,140,3,540,460,R,1,<rshift>,1,1,515534,406
Control_TS_9A,3,test,R,141,3,540,460,R,1,<rshift>,1,1,516534,529
Control_TS_9A,3,test,R,142,3,540,460,R,1,<rshift>,1,1,517542,411
Control_TS_9A,3,test,R,143,1,540,260,R,1,<rshift>,1,1,518547,435
Control_TS_9A,3,test,R,144,2,740,260,R,1,<rshift>,1,1,519539,490
Control_TS_9A,3,test,R,145,3,540,460,R,1,<rshift>,1,1,520539,429
Control_TS_9A,3,test,R,146,3,540,460,P,0,NONE,0,1,521544,951
Control_TS_9A,3,test,R,147,2,740,260,R,1,<rshift>,1,1,522541,338
Control_TS_9A,3,test,R,148,1,540,260,R,1,<rshift>,1,1,523540,312
Control_TS_9A,3,test,R,149,4,740,460,P,0,NONE,0,1,524544,952
Control_TS_9A,3,test,R,150,3,540,460,P,0,<rshift>,1,0,525543,377
Control_TS_9A,3,test,R,151,3,540,460,R,1,<rshift>,1,1,526543,415
Control_TS_9A,3,test,R,152,2,740,260,R,1,<rshift>,1,1,527542,372
Control_TS_9A,3,test,R,153,2,740,260,R,1,<rshift>,1,1,528539,337
Control_TS_9A,3,test,R,154,3,540,460,R,1,<rshift>,1,1,529541,361
Control_TS_9A,3,test,R,155,4,740,460,P,0,NONE,0,1,530539,952
Control_TS_9A,3,test,R,156,4,740,460,R,1,<rshift>,1,1,531533,440
Control_TS_9A,3,test,R,157,1,540,260,R,1,<rshift>,1,1,532542,334
Control_TS_9A,3,test,R,158,4,740,460,P,0,NONE,0,1,533537,953
Control_TS_9A,3,test,R,159,4,740,460,R,1,<rshift>,1,1,534545,390
Control_TS_9A,3,test,R,160,4,740,460,P,0,NONE,0,1,535543,952
Control_TS_9A,3,test,R,161,3,540,460,R,1,<rshift>,1,1,536543,468
Control_TS_9A,3,test,R,162,4,740,460,R,1,<rshift>,1,1,537541,445
Control_TS_9A,3,test,R,163,3,540,460,R,1,<rshift>,1,1,538539,400
Control_TS_9A,3,test,R,164,2,740,260,R,1,<rshift>,1,1,539540,368
Control_TS_9A,3,test,R,165,1,540,260,P,0,NONE,0,1,540542,953
Control_TS_9A,3,test,R,166,4,740,460,R,1,<rshift>,1,1,541541,336
Control_TS_9A,3,test,R,167,4,740,460,R,1,<rshift>,1,1,542542,425
Control_TS_9A,3,test,R,168,2,740,260,R,1,<rshift>,1,1,543544,400
Control_TS_9A,3,test,R,169,1,540,260,P,0,NONE,0,1,544535,952
Control_TS_9A,3,test,R,170,2,740,260,R,1,<rshift>,1,1,545545,335
Control_TS_9A,3,test,R,171,1,540,260,R,1,<rshift>,1,1,546541,406
Control_TS_9A,3,test,R,172,1,540,260,P,0,<rshift>,1,0,547544,346
Control_TS_9A,3,test,R,173,4,740,460,R,1,<rshift>,1,1,548538,373
Control_TS_9A,3,test,R,174,2,740,260,P,0,NONE,0,1,549537,953
Control_TS_9A,3,test,R,175,2,740,260,R,1,<rshift>,1,1,550540,387
Control_TS_9A,3,test,R,176,3,540,460,R,1,<rshift>,1,1,551545,394
Control_TS_9A,3,test,R,177,3,540,460,R,1,<rshift>,1,1,552542,452
Control_TS_9A,3,test,R,178,4,740,460,R,1,<rshift>,1,1,553542,391
Control_TS_9A,3,test,R,179,3,540,460,P,0,NONE,0,1,554542,953
Control_TS_9A,3,test,R,180,2,740,260,R,1,<rshift>,1,1,555539,332
Control_TS_9A,3,test,R,181,3,540,460,R,1,<rshift>,1,1,556539,383
Control_TS_9A,3,test,R,182,4,740,460,R,1,<rshift>,1,1,557540,498
Control_TS_9A,3,test,R,183,4,740,460,P,0,NONE,0,1,558541,952
Control_TS_9A,3,test,R,184,3,540,460,R,1,<rshift>,1,1,559539,348
Control_TS_9A,3,test,R,185,1,540,260,R,1,<rshift>,1,1,560540,455
Control_TS_9A,3,test,R,186,4,740,460,R,1,<rshift>,1,1,561538,407
Control_TS_9A,3,test,R,187,3,540,460,R,1,<rshift>,1,1,562539,393
Control_TS_9A,3,test,R,188,3,540,460,R,1,<rshift>,1,1,563542,402
Control_TS_9A,3,test,R,189,3,540,460,R,1,<rshift>,1,1,564541,540
Control_TS_9A,3,test,R,190,1,540,260,R,1,<rshift>,1,1,565540,435
Control_TS_9A,3,test,R,191,1,540,260,R,1,<rshift>,1,1,566541,418
Control_TS_9A,3,test,R,192,1,540,260,R,1,<rshift>,1,1,567540,459
Control_TS_9A,3,test,R,193,4,740,460,R,1,<rshift>,1,1,568540,438
Control_TS_9A,3,test,R,194,4,740,460,R,1,<rshift>,1,1,569541,387
Control_TS_9A,3,test,R,195,1,540,260,R,1,<rshift>,1,1,570542,449
Control_TS_9A,3,test,R,196,1,540,260,R,1,<rshift>,1,1,571540,378
Control_TS_9A,3,test,R,197,2,740,260,R,1,<rshift>,1,1,572540,540
Control_TS_9A,3,test,R,198,3,540,460,R,1,<rshift>,1,1,573541,534
Control_TS_9A,3,test,R,199,2,740,260,R,1,<rshift>,1,1,574543,404
Control_TS_9A,3,test,R,200,4,740,460,R,1,<rshift>,1,1,575541,485
Control_TS_9A,3,test,R,201,2,740,260,R,1,<rshift>,1,1,576541,387
Control_TS_9A,3,test,R,202,4,740,460,R,1,<rshift>,1,1,577531,455
Control_TS_9A,3,test,R,203,2,740,260,R,1,<rshift>,1,1,578539,379
Control_TS_9A,3,test,R,204,3,540,460,R,1,<rshift>,1,1,579542,425
Control_TS_9A,3,test,R,205,4,740,460,R,1,<rshift>,1,1,580542,383
Control_TS_9A,3,test,R,206,2,740,260,R,1,<rshift>,1,1,581537,403
Control_TS_9A,3,test,R,207,2,740,260,R,1,<rshift>,1,1,582543,559
Control_TS_9A,3,test,R,208,1,540,260,R,1,<rshift>,1,1,583541,479
Control_TS_9A,3,test,R,209,4,740,460,P,0,<rshift>,1,0,584543,370
Control_TS_9A,3,test,R,210,2,740,260,R,1,<rshift>,1,1,585541,372
Control_TS_9A,3,test,R,211,3,540,460,P,0,NONE,0,1,586543,954
Control_TS_9A,3,test,R,212,1,540,260,P,0,NONE,0,1,587541,952
Control_TS_9A,3,test,R,213,4,740,460,R,1,<rshift>,1,1,588539,392
Control_TS_9A,3,test,R,214,3,540,460,R,1,<rshift>,1,1,589540,534
Control_TS_9A,3,test,R,215,1,540,260,P,0,NONE,0,1,590540,954
Control_TS_9A,3,test,R,216,3,540,460,R,1,<rshift>,1,1,591540,380
Control_TS_9A,3,test,R,217,2,740,260,R,1,<rshift>,1,1,592537,322
Control_TS_9A,3,test,R,218,1,540,260,R,1,<rshift>,1,1,593540,354
Control_TS_9A,3,test,R,219,4,740,460,R,1,<rshift>,1,1,594541,362
Control_TS_9A,3,test,R,220,2,740,260,R,1,<rshift>,1,1,595542,404
Control_TS_9A,3,test,R,221,4,740,460,R,1,<rshift>,1,1,596538,415
Control_TS_9A,3,test,R,222,2,740,260,R,1,<rshift>,1,1,597537,553
Control_TS_9A,3,test,R,223,1,540,260,R,1,<rshift>,1,1,598546,421
Control_TS_9A,3,test,R,224,2,740,260,R,1,<rshift>,1,1,599542,355
Control_TS_9A,3,test,R,225,2,740,260,R,1,<rshift>,1,1,600541,437
Control_TS_9A,3,test,R,226,2,740,260,R,1,<rshift>,1,1,601540,466
Control_TS_9A,3,test,R,227,2,740,260,R,1,<rshift>,1,1,602538,463
Control_TS_9A,3,test,R,228,3,540,460,R,1,<rshift>,1,1,603539,438
Control_TS_9A,3,test,R,229,4,740,460,P,0,NONE,0,1,604543,953
Control_TS_9A,3,test,R,230,4,740,460,R,1,<rshift>,1,1,605538,430
Control_TS_9A,3,test,R,231,4,740,460,R,1,<rshift>,1,1,606541,413
Control_TS_9A,3,test,R,232,1,540,260,R,1,<rshift>,1,1,607538,562
Control_TS_9A,3,test,R,233,2,740,260,P,0,<rshift>,1,0,608543,352
Control_TS_9A,3,test,R,234,2,740,260,P,0,<rshift>,1,0,609541,356
Control_TS_9A,3,test,R,235,4,740,460,R,1,<rshift>,1,1,610540,340
Control_TS_9A,3,test,R,236,1,540,260,R,1,<rshift>,1,1,611542,546
Control_TS_9A,3,test,R,237,4,740,460,R,1,<rshift>,1,1,612545,388
Control_TS_9A,3,test,R,238,2,740,260,R,1,<rshift>,1,1,613543,343
Control_TS_9A,3,test,R,239,4,740,460,P,0,<rshift>,1,0,614538,443
Control_TS_9A,3,test,R,240,4,740,460,P,0,NONE,0,1,615539,953
Control_TS_9A,3,test,R,241,1,540,260,R,1,<rshift>,1,1,616538,381
Control_TS_9A,3,test,R,242,1,540,260,R,1,<rshift>,1,1,617542,691
Control_TS_9A,3,test,R,243,3,540,460,R,1,<rshift>,1,1,618542,548
Control_TS_9A,3,test,R,244,3,540,460,R,1,<rshift>,1,1,619546,498
Control_TS_9A,3,test,R,245,2,740,260,R,1,<rshift>,1,1,620542,364
Control_TS_9A,3,test,R,246,1,540,260,R,1,<rshift>,1,1,621543,341
Control_TS_9A,3,test,R,247,3,540,460,P,0,NONE,0,1,622540,954
Control_TS_9A,3,test,R,248,3,540,460,R,1,<rshift>,1,1,623540,532
Control_TS_9A,3,test,R,249,2,740,260,P,0,<rshift>,1,0,624539,365
Control_TS_9A,3,test,R,250,1,540,260,P,0,<rshift>,1,0,625546,285
Control_TS_9A,3,test,R,251,2,740,260,R,1,<rshift>,1,1,626539,335
Control_TS_9A,3,test,R,252,1,540,260,R,1,<rshift>,1,1,627537,419
Control_TS_9A,3,test,R,253,1,540,260,R,1,<rshift>,1,1,628541,410
Control_TS_9A,3,test,R,254,3,540,460,R,1,<rshift>,1,1,629546,410
Control_TS_9A,3,test,R,255,3,540,460,R,1,<rshift>,1,1,630545,384
Control_TS_9A,3,test,R,256,1,540,260,P,0,<rshift>,1,0,631543,410
Control_TS_9A,3,test,R,257,2,740,260,R,1,<rshift>,1,1,632543,405
Control_TS_9A,3,test,R,258,1,540,260,P,0,NONE,0,1,633536,954
Control_TS_9A,3,test,R,259,2,740,260,R,1,<rshift>,1,1,634542,337
Control_TS_9A,3,test,R,260,2,740,260,R,1,<rshift>,1,1,635542,430
Control_TS_9A,3,test,R,261,1,540,260,R,1,<rshift>,1,1,636541,615
Control_TS_9A,3,test,R,262,4,740,460,R,1,<rshift>,1,1,637543,468
Control_TS_9A,3,test,R,263,3,540,460,R,1,<rshift>,1,1,638539,433
Control_TS_9A,3,test,R,264,1,540,260,R,1,<rshift>,1,1,639543,367
Control_TS_9A,3,test,R,265,4,740,460,R,1,<rshift>,1,1,640544,380
Control_TS_9A,3,test,R,266,3,540,460,R,1,<rshift>,1,1,641543,525
Control_TS_9A,3,test,R,267,3,540,460,R,1,<rshift>,1,1,642543,466
Control_TS_9A,3,test,R,268,3,540,460,R,1,<rshift>,1,1,643541,491
Control_TS_9A,3,test,R,269,4,740,460,R,1,<rshift>,1,1,644541,483
Control_TS_9A,3,test,R,270,3,540,460,R,1,<rshift>,1,1,645538,383
Control_TS_9A,3,test,R,271,4,740,460,P,0,NONE,0,1,646542,952
Control_TS_9A,3,test,R,272,4,740,460,R,1,<rshift>,1,1,647544,408
Control_TS_9A,3,test,R,273,4,740,460,R,1,<rshift>,1,1,648541,469
Control_TS_9A,3,test,R,274,2,740,260,P,0,NONE,0,1,649539,954
Control_TS_9A,3,test,R,275,2,740,260,R,1,<rshift>,1,1,650539,560
Control_TS_9A,3,test,R,276,2,740,260,P,0,<rshift>,1,0,651541,484
Control_TS_9A,3,test,R,277,2,740,260,R,1,<rshift>,1,1,652537,489
Control_TS_9A,3,test,R,278,1,540,260,P,0,NONE,0,1,653542,954
Control_TS_9A,3,test,R,279,1,540,260,R,1,<rshift>,1,1,654537,347
Control_TS_9A,3,test,R,280,1,540,260,R,1,<rshift>,1,1,655543,462
Control_TS_9A,3,test,R,281,1,540,260,R,1,NONE,0,0,656545,953
Control_TS_9A,3,test,R,282,1,540,260,R,1,<rshift>,1,1,657545,371
Control_TS_9A,3,test,R,283,1,540,260,P,0,NONE,0,1,658541,952
Control_TS_9A,3,test,R,284,4,740,460,R,1,<rshift>,1,1,659540,334
Control_TS_9A,3,test,R,285,2,740,260,P,0,NONE,0,1,660541,954
Control_TS_9A,3,test,R,286,1,540,260,P,0,<rshift>,1,0,661542,347
Control_TS_9A,3,test,R,287,3,540,460,R,1,<rshift>,1,1,662541,379
Control_TS_9A,3,test,R,288,4,740,460,P,0,NONE,0,1,663538,954
Control_TS_9A,3,test,R,289,1,540,260,R,1,<rshift>,1,1,664539,442
Control_TS_9A,3,test,R,290,2,740,260,R,1,<rshift>,1,1,665540,406
Control_TS_9A,3,test,R,291,2,740,260,R,1,<rshift>,1,1,666547,408
Control_TS_9A,3,test,R,292,4,740,460,R,1,<rshift>,1,1,667544,584
Control_TS_9A,3,test,R,293,3,540,460,R,1,<rshift>,1,1,668539,463
Control_TS_9A,3,test,R,294,3,540,460,P,0,NONE,0,1,669540,953
Control_TS_9A,3,test,R,295,2,740,260,P,0,NONE,0,1,670542,952
Control_TS_9A,3,test,R,296,4,740,460,R,1,<rshift>,1,1,671544,384
Control_TS_9A,3,test,R,297,2,740,260,P,0,NONE,0,1,672541,953
Control_TS_9A,3,test,R,298,3,540,460,R,1,<rshift>,1,1,673544,352
Control_TS_9A,3,test,R,299,4,740,460,R,1,<rshift>,1,1,674538,437
Control_TS_9A,3,test,R,300,1,540,260,R,1,<rshift>,1,1,675539,426
