subnum,block,type,correctresponse,trial,choice,x,y,stim,present,response,responded,corr,starttime,rt
Control_TS_B,0,practice,P,1,3,620,550,P,1,<rshift>,1,1,8327,670
Control_TS_B,0,practice,P,2,1,620,350,P,1,<rshift>,1,1,9325,305
Control_TS_B,0,practice,P,3,4,820,550,P,1,<rshift>,1,1,10325,235
Control_TS_B,0,practice,P,4,4,820,550,P,1,<rshift>,1,1,11324,294
Control_TS_B,0,practice,P,5,1,620,350,P,1,<rshift>,1,1,12324,343
Control_TS_B,0,practice,P,6,3,620,550,P,1,<rshift>,1,1,13325,375
Control_TS_B,0,practice,P,7,4,820,550,P,1,<rshift>,1,1,14324,338
Control_TS_B,0,practice,P,8,2,820,350,R,0,<rshift>,1,0,15324,292
Control_TS_B,0,practice,P,9,4,820,550,R,0,<rshift>,1,0,16683,466
Control_TS_B,0,practice,P,10,1,620,350,P,1,<rshift>,1,1,18211,515
Control_TS_B,1,test,P,1,3,620,550,R,0,<rshift>,1,0,22539,435
Control_TS_B,1,test,P,2,3,620,550,P,1,<rshift>,1,1,23539,536
Control_TS_B,1,test,P,3,2,820,350,P,1,<rshift>,1,1,24539,488
Control_TS_B,1,test,P,4,3,620,550,P,1,<rshift>,1,1,25539,403
Control_TS_B,1,test,P,5,1,620,350,P,1,<rshift>,1,1,26539,441
Control_TS_B,1,test,P,6,2,820,350,P,1,<rshift>,1,1,27539,335
Control_TS_B,1,test,P,7,1,620,350,P,1,<rshift>,1,1,28539,311
Control_TS_B,1,test,P,8,4,820,550,P,1,<rshift>,1,1,29539,358
Control_TS_B,1,test,P,9,2,820,350,P,1,<rshift>,1,1,30539,352
Control_TS_B,1,test,P,10,3,620,550,P,1,<rshift>,1,1,31539,399
Control_TS_B,1,test,P,11,2,820,350,P,1,<rshift>,1,1,32539,340
Control_TS_B,1,test,P,12,2,820,350,P,1,<rshift>,1,1,33540,308
Control_TS_B,1,test,P,13,1,620,350,R,0,<rshift>,1,0,34539,297
Control_TS_B,1,test,P,14,1,620,350,P,1,<rshift>,1,1,35539,424
Control_TS_B,1,test,P,15,3,620,550,P,1,<rshift>,1,1,36539,359
Control_TS_B,1,test,P,16,1,620,350,P,1,<rshift>,1,1,37539,342
Control_TS_B,1,test,P,17,2,820,350,P,1,<rshift>,1,1,38539,458
Control_TS_B,1,test,P,18,2,820,350,R,0,NONE,0,1,39539,950
Control_TS_B,1,test,P,19,1,620,350,P,1,<rshift>,1,1,40539,415
Control_TS_B,1,test,P,20,1,620,350,R,0,<rshift>,1,0,41539,319
Control_TS_B,1,test,P,21,3,620,550,P,1,<rshift>,1,1,42539,297
Control_TS_B,1,test,P,22,2,820,350,P,1,<rshift>,1,1,43539,406
Control_TS_B,1,test,P,23,2,820,350,P,1,<rshift>,1,1,44539,325
Control_TS_B,1,test,P,24,2,820,350,P,1,<rshift>,1,1,45539,305
Control_TS_B,1,test,P,25,2,820,350,R,0,NONE,0,1,46539,950
Control_TS_B,1,test,P,26,3,620,550,R,0,NONE,0,1,47539,950
Control_TS_B,1,test,P,27,1,620,350,P,1,<rshift>,1,1,48539,246
Control_TS_B,1,test,P,28,1,620,350,P,1,<rshift>,1,1,49539,435
Control_TS_B,1,test,P,29,4,820,550,P,1,<rshift>,1,1,50539,436
Control_TS_B,1,test,P,30,4,820,550,P,1,<rshift>,1,1,51539,357
Control_TS_B,1,test,P,31,4,820,550,P,1,<rshift>,1,1,52539,334
Control_TS_B,1,test,P,32,2,820,350,P,1,<rshift>,1,1,53539,363
Control_TS_B,1,test,P,33,4,820,550,R,0,<rshift>,1,0,54539,331
Control_TS_B,1,test,P,34,4,820,550,P,1,<rshift>,1,1,55539,415
Control_TS_B,1,test,P,35,2,820,350,P,1,<rshift>,1,1,56539,397
Control_TS_B,1,test,P,36,2,820,350,P,1,<rshift>,1,1,57539,358
Control_TS_B,1,test,P,37,3,620,550,P,1,<rshift>,1,1,58539,436
Control_TS_B,1,test,P,38,3,620,550,P,1,<rshift>,1,1,59539,399
Control_TS_B,1,test,P,39,4,820,550,P,1,<rshift>,1,1,60539,427
Control_TS_B,1,test,P,40,3,620,550,P,1,<rshift>,1,1,61539,360
Control_TS_B,1,test,P,41,1,620,350,P,1,<rshift>,1,1,62539,438
Control_TS_B,1,test,P,42,2,820,350,P,1,<rshift>,1,1,63539,342
Control_TS_B,1,test,P,43,3,620,550,P,1,<rshift>,1,1,64539,356
Control_TS_B,1,test,P,44,1,620,350,P,1,<rshift>,1,1,65539,344
Control_TS_B,1,test,P,45,3,620,550,P,1,<rshift>,1,1,66539,329
Control_TS_B,1,test,P,46,3,620,550,P,1,<rshift>,1,1,67540,455
Control_TS_B,1,test,P,47,3,620,550,P,1,<rshift>,1,1,68539,384
Control_TS_B,1,test,P,48,2,820,350,P,1,<rshift>,1,1,69540,342
Control_TS_B,1,test,P,49,2,820,350,P,1,<rshift>,1,1,70540,363
Control_TS_B,1,test,P,50,2,820,350,R,0,<rshift>,1,0,71539,307
Control_TS_B,1,test,P,51,4,820,550,P,1,<rshift>,1,1,72539,315
Control_TS_B,1,test,P,52,3,620,550,R,0,<rshift>,1,0,73539,312
Control_TS_B,1,test,P,53,1,620,350,P,1,<rshift>,1,1,74539,391
Control_TS_B,1,test,P,54,3,620,550,P,1,<rshift>,1,1,75539,358
Control_TS_B,1,test,P,55,3,620,550,R,0,NONE,0,1,76540,950
Control_TS_B,1,test,P,56,2,820,350,P,1,<rshift>,1,1,77539,479
Control_TS_B,1,test,P,57,3,620,550,P,1,<rshift>,1,1,78539,539
Control_TS_B,1,test,P,58,2,820,350,P,1,<rshift>,1,1,79539,369
Control_TS_B,1,test,P,59,3,620,550,R,0,NONE,0,1,80539,950
Control_TS_B,1,test,P,60,2,820,350,R,0,<rshift>,1,0,81539,303
Control_TS_B,1,test,P,61,4,820,550,R,0,<rshift>,1,0,82539,294
Control_TS_B,1,test,P,62,1,620,350,P,1,<rshift>,1,1,83540,348
Control_TS_B,1,test,P,63,2,820,350,P,1,<rshift>,1,1,84539,642
Control_TS_B,1,test,P,64,1,620,350,P,1,<rshift>,1,1,85539,441
Control_TS_B,1,test,P,65,1,620,350,P,1,<rshift>,1,1,86539,383
Control_TS_B,1,test,P,66,4,820,550,P,1,<rshift>,1,1,87539,331
Control_TS_B,1,test,P,67,3,620,550,P,1,<rshift>,1,1,88539,388
Control_TS_B,1,test,P,68,1,620,350,P,1,<rshift>,1,1,89539,390
Control_TS_B,1,test,P,69,1,620,350,R,0,NONE,0,1,90539,950
Control_TS_B,1,test,P,70,1,620,350,P,1,<rshift>,1,1,91539,531
Control_TS_B,1,test,P,71,4,820,550,P,1,<rshift>,1,1,92539,365
Control_TS_B,1,test,P,72,1,620,350,P,1,<rshift>,1,1,93539,359
Control_TS_B,1,test,P,73,4,820,550,P,1,<rshift>,1,1,94539,298
Control_TS_B,1,test,P,74,1,620,350,R,0,NONE,0,1,95539,950
Control_TS_B,1,test,P,75,3,620,550,P,1,<rshift>,1,1,96539,298
Control_TS_B,1,test,P,76,1,620,350,P,1,<rshift>,1,1,97539,310
Control_TS_B,1,test,P,77,4,820,550,P,1,<rshift>,1,1,98539,326
Control_TS_B,1,test,P,78,2,820,350,P,1,<rshift>,1,1,99539,360
Control_TS_B,1,test,P,79,1,620,350,R,0,<rshift>,1,0,100539,343
Control_TS_B,1,test,P,80,1,620,350,P,1,<rshift>,1,1,101539,369
Control_TS_B,1,test,P,81,3,620,550,P,1,<rshift>,1,1,102539,515
Control_TS_B,1,test,P,82,3,620,550,R,0,NONE,0,1,103539,950
Control_TS_B,1,test,P,83,4,820,550,P,1,<rshift>,1,1,104539,421
Control_TS_B,1,test,P,84,3,620,550,P,1,<rshift>,1,1,105539,495
Control_TS_B,1,test,P,85,3,620,550,P,1,<rshift>,1,1,106539,447
Control_TS_B,1,test,P,86,1,620,350,P,1,<rshift>,1,1,107539,477
Control_TS_B,1,test,P,87,2,820,350,P,1,<rshift>,1,1,108539,364
Control_TS_B,1,test,P,88,2,820,350,P,1,<rshift>,1,1,109539,421
Control_TS_B,1,test,P,89,4,820,550,P,1,<rshift>,1,1,110539,482
Control_TS_B,1,test,P,90,3,620,550,P,1,<rshift>,1,1,111539,635
Control_TS_B,1,test,P,91,1,620,350,P,1,<rshift>,1,1,112539,359
Control_TS_B,1,test,P,92,3,620,550,P,1,<rshift>,1,1,113539,449
Control_TS_B,1,test,P,93,1,620,350,R,0,<rshift>,1,0,114539,318
Control_TS_B,1,test,P,94,4,820,550,P,1,<rshift>,1,1,115539,367
Control_TS_B,1,test,P,95,4,820,550,P,1,<rshift>,1,1,116539,373
Control_TS_B,1,test,P,96,4,820,550,P,1,<rshift>,1,1,117539,342
Control_TS_B,1,test,P,97,1,620,350,P,1,<rshift>,1,1,118540,441
Control_TS_B,1,test,P,98,1,620,350,P,1,<rshift>,1,1,119540,433
Control_TS_B,1,test,P,99,2,820,350,P,1,<rshift>,1,1,120539,678
Control_TS_B,1,test,P,100,1,620,350,R,0,<rshift>,1,0,121539,338
Control_TS_B,1,test,P,101,2,820,350,R,0,<rshift>,1,0,122539,451
Control_TS_B,1,test,P,102,4,820,550,P,1,<rshift>,1,1,123540,393
Control_TS_B,1,test,P,103,2,820,350,P,1,<rshift>,1,1,124540,412
Control_TS_B,1,test,P,104,1,620,350,P,1,<rshift>,1,1,125539,443
Control_TS_B,1,test,P,105,1,620,350,P,1,<rshift>,1,1,126539,400
Control_TS_B,1,test,P,106,2,820,350,R,0,NONE,0,1,127539,950
Control_TS_B,1,test,P,107,3,620,550,P,1,<rshift>,1,1,128539,342
Control_TS_B,1,test,P,108,2,820,350,P,1,<rshift>,1,1,129539,442
Control_TS_B,1,test,P,109,2,820,350,P,1,NONE,0,0,130539,950
Control_TS_B,1,test,P,110,2,820,350,P,1,<rshift>,1,1,131539,373
Control_TS_B,1,test,P,111,2,820,350,P,1,<rshift>,1,1,132539,323
Control_TS_B,1,test,P,112,3,620,550,P,1,<rshift>,1,1,133539,385
Control_TS_B,1,test,P,113,4,820,550,P,1,<rshift>,1,1,134539,305
Control_TS_B,1,test,P,114,4,820,550,P,1,<rshift>,1,1,135539,298
Control_TS_B,1,test,P,115,2,820,350,P,1,<rshift>,1,1,136539,28
Control_TS_B,1,test,P,116,2,820,350,P,1,<rshift>,1,1,137539,406
Control_TS_B,1,test,P,117,4,820,550,P,1,<rshift>,1,1,138539,370
Control_TS_B,1,test,P,118,2,820,350,R,0,NONE,0,1,139539,950
Control_TS_B,1,test,P,119,3,620,550,R,0,<rshift>,1,0,140539,450
Control_TS_B,1,test,P,120,3,620,550,P,1,<rshift>,1,1,141539,476
Control_TS_B,1,test,P,121,1,620,350,P,1,<rshift>,1,1,142539,346
Control_TS_B,1,test,P,122,1,620,350,P,1,<rshift>,1,1,143539,412
Control_TS_B,1,test,P,123,4,820,550,P,1,<rshift>,1,1,144539,401
Control_TS_B,1,test,P,124,4,820,550,P,1,<rshift>,1,1,145539,492
Control_TS_B,1,test,P,125,3,620,550,P,1,<rshift>,1,1,146539,523
Control_TS_B,1,test,P,126,3,620,550,P,1,<rshift>,1,1,147539,549
Control_TS_B,1,test,P,127,2,820,350,P,1,<rshift>,1,1,148539,579
Control_TS_B,1,test,P,128,2,820,350,P,1,<rshift>,1,1,149539,385
Control_TS_B,1,test,P,129,2,820,350,P,1,<rshift>,1,1,150539,358
Control_TS_B,1,test,P,130,1,620,350,P,1,<rshift>,1,1,151539,393
Control_TS_B,1,test,P,131,2,820,350,R,0,NONE,0,1,152539,950
Control_TS_B,1,test,P,132,4,820,550,P,1,<rshift>,1,1,153539,339
Control_TS_B,1,test,P,133,4,820,550,P,1,<rshift>,1,1,154539,405
Control_TS_B,1,test,P,134,4,820,550,P,1,<rshift>,1,1,155539,342
Control_TS_B,1,test,P,135,1,620,350,P,1,<rshift>,1,1,156539,359
Control_TS_B,1,test,P,136,3,620,550,P,1,<rshift>,1,1,157539,389
Control_TS_B,1,test,P,137,2,820,350,P,1,<rshift>,1,1,158539,412
Control_TS_B,1,test,P,138,2,820,350,P,1,<rshift>,1,1,159539,363
Control_TS_B,1,test,P,139,3,620,550,P,1,<rshift>,1,1,160539,375
Control_TS_B,1,test,P,140,2,820,350,P,1,<rshift>,1,1,161539,577
Control_TS_B,1,test,P,141,1,620,350,P,1,<rshift>,1,1,162539,383
Control_TS_B,1,test,P,142,3,620,550,P,1,<rshift>,1,1,163539,295
Control_TS_B,1,test,P,143,4,820,550,P,1,<rshift>,1,1,164539,284
Control_TS_B,1,test,P,144,1,620,350,P,1,<rshift>,1,1,165539,301
Control_TS_B,1,test,P,145,3,620,550,P,1,<rshift>,1,1,166539,328
Control_TS_B,1,test,P,146,1,620,350,R,0,<rshift>,1,0,167539,350
Control_TS_B,1,test,P,147,2,820,350,R,0,NONE,0,1,168539,950
Control_TS_B,1,test,P,148,1,620,350,R,0,<rshift>,1,0,169539,449
Control_TS_B,1,test,P,149,4,820,550,P,1,<rshift>,1,1,170539,494
Control_TS_B,1,test,P,150,2,820,350,P,1,<rshift>,1,1,171539,350
Control_TS_B,1,test,P,151,1,620,350,P,1,<rshift>,1,1,172539,328
Control_TS_B,1,test,P,152,2,820,350,P,1,<rshift>,1,1,173539,345
Control_TS_B,1,test,P,153,4,820,550,R,0,NONE,0,1,174539,950
Control_TS_B,1,test,P,154,1,620,350,P,1,<rshift>,1,1,175539,420
Control_TS_B,1,test,P,155,4,820,550,P,1,<rshift>,1,1,176540,399
Control_TS_B,1,test,P,156,3,620,550,P,1,<rshift>,1,1,177539,338
Control_TS_B,1,test,P,157,2,820,350,P,1,<rshift>,1,1,178539,396
Control_TS_B,1,test,P,158,2,820,350,P,1,<rshift>,1,1,179539,386
Control_TS_B,1,test,P,159,2,820,350,P,1,<rshift>,1,1,180539,347
Control_TS_B,1,test,P,160,2,820,350,P,1,<rshift>,1,1,181540,383
Control_TS_B,1,test,P,161,3,620,550,R,0,NONE,0,1,182540,950
Control_TS_B,1,test,P,162,2,820,350,P,1,<rshift>,1,1,183539,429
Control_TS_B,1,test,P,163,4,820,550,P,1,<rshift>,1,1,184540,497
Control_TS_B,1,test,P,164,3,620,550,P,1,<rshift>,1,1,185539,356
Control_TS_B,1,test,P,165,3,620,550,P,1,<rshift>,1,1,186539,338
Control_TS_B,1,test,P,166,1,620,350,R,0,NONE,0,1,187539,950
Control_TS_B,1,test,P,167,1,620,350,P,1,<rshift>,1,1,188539,388
Control_TS_B,1,test,P,168,1,620,350,R,0,<rshift>,1,0,189539,345
Control_TS_B,1,test,P,169,2,820,350,P,1,<rshift>,1,1,190539,301
Control_TS_B,1,test,P,170,1,620,350,P,1,NONE,0,0,191539,950
Control_TS_B,1,test,P,171,1,620,350,P,1,<rshift>,1,1,192539,296
Control_TS_B,1,test,P,172,1,620,350,P,1,<rshift>,1,1,193539,319
Control_TS_B,1,test,P,173,3,620,550,P,1,<rshift>,1,1,194539,343
Control_TS_B,1,test,P,174,1,620,350,P,1,<rshift>,1,1,195539,401
Control_TS_B,1,test,P,175,3,620,550,P,1,<rshift>,1,1,196539,433
Control_TS_B,1,test,P,176,1,620,350,P,1,<rshift>,1,1,197539,340
Control_TS_B,1,test,P,177,2,820,350,P,1,<rshift>,1,1,198539,399
Control_TS_B,1,test,P,178,3,620,550,R,0,<rshift>,1,0,199539,333
Control_TS_B,1,test,P,179,4,820,550,P,1,<rshift>,1,1,200539,398
Control_TS_B,1,test,P,180,3,620,550,P,1,<rshift>,1,1,201539,515
Control_TS_B,1,test,P,181,1,620,350,P,1,<rshift>,1,1,202539,371
Control_TS_B,1,test,P,182,3,620,550,P,1,<rshift>,1,1,203539,384
Control_TS_B,1,test,P,183,2,820,350,R,0,NONE,0,1,204539,950
Control_TS_B,1,test,P,184,2,820,350,P,1,<rshift>,1,1,205539,459
Control_TS_B,1,test,P,185,3,620,550,R,0,NONE,0,1,206539,950
Control_TS_B,1,test,P,186,3,620,550,R,0,<rshift>,1,0,207539,396
Control_TS_B,1,test,P,187,3,620,550,R,0,NONE,0,1,208539,950
Control_TS_B,1,test,P,188,1,620,350,P,1,<rshift>,1,1,209539,315
Control_TS_B,1,test,P,189,3,620,550,P,1,<rshift>,1,1,210539,369
Control_TS_B,1,test,P,190,2,820,350,P,1,<rshift>,1,1,211539,361
Control_TS_B,1,test,P,191,4,820,550,R,0,NONE,0,1,212539,950
Control_TS_B,1,test,P,192,2,820,350,R,0,NONE,0,1,213539,950
Control_TS_B,1,test,P,193,4,820,550,P,1,<rshift>,1,1,214539,385
Control_TS_B,1,test,P,194,1,620,350,P,1,<rshift>,1,1,215539,325
Control_TS_B,1,test,P,195,2,820,350,P,1,<rshift>,1,1,216539,668
Control_TS_B,1,test,P,196,3,620,550,P,1,<rshift>,1,1,217539,389
Control_TS_B,1,test,P,197,3,620,550,P,1,<rshift>,1,1,218539,400
Control_TS_B,1,test,P,198,3,620,550,R,0,NONE,0,1,219539,950
Control_TS_B,1,test,P,199,3,620,550,P,1,<rshift>,1,1,220539,527
Control_TS_B,1,test,P,200,1,620,350,P,1,<rshift>,1,1,221539,432
Control_TS_B,1,test,P,201,2,820,350,P,1,<rshift>,1,1,222540,431
Control_TS_B,1,test,P,202,1,620,350,P,1,<rshift>,1,1,223539,520
Control_TS_B,1,test,P,203,3,620,550,R,0,<rshift>,1,0,224539,325
Control_TS_B,1,test,P,204,2,820,350,P,1,<rshift>,1,1,225539,488
Control_TS_B,1,test,P,205,3,620,550,P,1,<rshift>,1,1,226539,489
Control_TS_B,1,test,P,206,4,820,550,P,1,<rshift>,1,1,227539,388
Control_TS_B,1,test,P,207,3,620,550,P,1,<rshift>,1,1,228539,370
Control_TS_B,1,test,P,208,2,820,350,P,1,<rshift>,1,1,229539,591
Control_TS_B,1,test,P,209,2,820,350,P,1,<rshift>,1,1,230539,381
Control_TS_B,1,test,P,210,1,620,350,P,1,<rshift>,1,1,231539,352
Control_TS_B,1,test,P,211,2,820,350,P,1,<rshift>,1,1,232539,296
Control_TS_B,1,test,P,212,1,620,350,P,1,<rshift>,1,1,233539,283
Control_TS_B,1,test,P,213,3,620,550,P,1,<rshift>,1,1,234539,318
Control_TS_B,1,test,P,214,2,820,350,P,1,<rshift>,1,1,235539,291
Control_TS_B,1,test,P,215,1,620,350,P,1,<rshift>,1,1,236539,515
Control_TS_B,1,test,P,216,1,620,350,P,1,<rshift>,1,1,237539,452
Control_TS_B,1,test,P,217,3,620,550,R,0,<rshift>,1,0,238539,340
Control_TS_B,1,test,P,218,3,620,550,P,1,<rshift>,1,1,239539,396
Control_TS_B,1,test,P,219,2,820,350,P,1,<rshift>,1,1,240539,340
Control_TS_B,1,test,P,220,1,620,350,P,1,<rshift>,1,1,241539,260
Control_TS_B,1,test,P,221,3,620,550,P,1,<rshift>,1,1,242539,313
Control_TS_B,1,test,P,222,3,620,550,P,1,<rshift>,1,1,243539,316
Control_TS_B,1,test,P,223,3,620,550,R,0,NONE,0,1,244539,950
Control_TS_B,1,test,P,224,1,620,350,P,1,<rshift>,1,1,245539,319
Control_TS_B,1,test,P,225,4,820,550,P,1,<rshift>,1,1,246539,425
Control_TS_B,1,test,P,226,3,620,550,P,1,<rshift>,1,1,247539,386
Control_TS_B,1,test,P,227,3,620,550,R,0,NONE,0,1,248539,950
Control_TS_B,1,test,P,228,2,820,350,P,1,<rshift>,1,1,249539,344
Control_TS_B,1,test,P,229,3,620,550,P,1,<rshift>,1,1,250539,401
Control_TS_B,1,test,P,230,1,620,350,P,1,<rshift>,1,1,251539,320
Control_TS_B,1,test,P,231,2,820,350,P,1,<rshift>,1,1,252539,298
Control_TS_B,1,test,P,232,2,820,350,P,1,<rshift>,1,1,253539,370
Control_TS_B,1,test,P,233,4,820,550,P,1,<rshift>,1,1,254539,367
Control_TS_B,1,test,P,234,4,820,550,P,1,<rshift>,1,1,255539,329
Control_TS_B,1,test,P,235,3,620,550,P,1,<rshift>,1,1,256539,317
Control_TS_B,1,test,P,236,3,620,550,P,1,<rshift>,1,1,257539,256
Control_TS_B,1,test,P,237,4,820,550,R,0,<rshift>,1,0,258539,322
Control_TS_B,1,test,P,238,2,820,350,P,1,NONE,0,0,259539,950
Control_TS_B,1,test,P,239,1,620,350,P,1,<rshift>,1,1,260539,271
Control_TS_B,1,test,P,240,3,620,550,P,1,<rshift>,1,1,261539,285
Control_TS_B,1,test,P,241,2,820,350,P,1,<rshift>,1,1,262539,290
Control_TS_B,1,test,P,242,2,820,350,P,1,<rshift>,1,1,263539,318
Control_TS_B,1,test,P,243,2,820,350,R,0,NONE,0,1,264539,950
Control_TS_B,1,test,P,244,2,820,350,P,1,<rshift>,1,1,265539,383
Control_TS_B,1,test,P,245,3,620,550,P,1,<rshift>,1,1,266539,396
Control_TS_B,1,test,P,246,2,820,350,P,1,<rshift>,1,1,267539,315
Control_TS_B,1,test,P,247,3,620,550,P,1,<rshift>,1,1,268540,351
Control_TS_B,1,test,P,248,1,620,350,P,1,<rshift>,1,1,269539,348
Control_TS_B,1,test,P,249,4,820,550,P,1,<rshift>,1,1,270539,421
Control_TS_B,1,test,P,250,3,620,550,P,1,<rshift>,1,1,271539,417
Control_TS_B,1,test,P,251,1,620,350,R,0,NONE,0,1,272539,950
Control_TS_B,1,test,P,252,2,820,350,R,0,<rshift>,1,0,273539,307
Control_TS_B,1,test,P,253,3,620,550,P,1,<rshift>,1,1,274539,356
Control_TS_B,1,test,P,254,2,820,350,P,1,<rshift>,1,1,275539,397
Control_TS_B,1,test,P,255,2,820,350,P,1,<rshift>,1,1,276539,384
Control_TS_B,1,test,P,256,4,820,550,R,0,NONE,0,1,277539,950
Control_TS_B,1,test,P,257,1,620,350,R,0,<rshift>,1,0,278539,382
Control_TS_B,1,test,P,258,1,620,350,P,1,<rshift>,1,1,279539,494
Control_TS_B,1,test,P,259,4,820,550,R,0,NONE,0,1,280539,950
Control_TS_B,1,test,P,260,3,620,550,P,1,NONE,0,0,281539,950
Control_TS_B,1,test,P,261,4,820,550,P,1,<rshift>,1,1,282539,394
Control_TS_B,1,test,P,262,4,820,550,P,1,<rshift>,1,1,283539,347
Control_TS_B,1,test,P,263,1,620,350,P,1,<rshift>,1,1,284539,404
Control_TS_B,1,test,P,264,4,820,550,P,1,<rshift>,1,1,285539,373
Control_TS_B,1,test,P,265,1,620,350,R,0,NONE,0,1,286539,950
Control_TS_B,1,test,P,266,1,620,350,P,1,<rshift>,1,1,287539,448
Control_TS_B,1,test,P,267,2,820,350,P,1,<rshift>,1,1,288539,403
Control_TS_B,1,test,P,268,1,620,350,P,1,<rshift>,1,1,289539,347
Control_TS_B,1,test,P,269,3,620,550,P,1,<rshift>,1,1,290539,374
Control_TS_B,1,test,P,270,3,620,550,R,0,NONE,0,1,291539,950
Control_TS_B,1,test,P,271,1,620,350,P,1,<rshift>,1,1,292539,341
Control_TS_B,1,test,P,272,3,620,550,P,1,<rshift>,1,1,293539,373
Control_TS_B,1,test,P,273,2,820,350,P,1,<rshift>,1,1,294539,365
Control_TS_B,1,test,P,274,4,820,550,P,1,<rshift>,1,1,295539,374
Control_TS_B,1,test,P,275,3,620,550,P,1,<rshift>,1,1,296539,340
Control_TS_B,1,test,P,276,4,820,550,P,1,<rshift>,1,1,297539,323
Control_TS_B,1,test,P,277,3,620,550,R,0,<rshift>,1,0,298539,337
Control_TS_B,1,test,P,278,2,820,350,R,0,NONE,0,1,299539,950
Control_TS_B,1,test,P,279,1,620,350,P,1,<rshift>,1,1,300539,311
Control_TS_B,1,test,P,280,1,620,350,P,1,<rshift>,1,1,301539,358
Control_TS_B,1,test,P,281,1,620,350,R,0,NONE,0,1,302539,950
Control_TS_B,1,test,P,282,3,620,550,R,0,<rshift>,1,0,303539,330
Control_TS_B,1,test,P,283,3,620,550,P,1,<rshift>,1,1,304539,463
Control_TS_B,1,test,P,284,4,820,550,P,1,<rshift>,1,1,305539,346
Control_TS_B,1,test,P,285,1,620,350,P,1,<rshift>,1,1,306539,363
Control_TS_B,1,test,P,286,4,820,550,P,1,<rshift>,1,1,307539,323
Control_TS_B,1,test,P,287,4,820,550,P,1,<rshift>,1,1,308539,343
Control_TS_B,1,test,P,288,2,820,350,P,1,<rshift>,1,1,309539,385
Control_TS_B,1,test,P,289,2,820,350,P,1,<rshift>,1,1,310539,381
Control_TS_B,1,test,P,290,2,820,350,P,1,<rshift>,1,1,311539,363
Control_TS_B,1,test,P,291,1,620,350,P,1,<rshift>,1,1,312539,451
Control_TS_B,1,test,P,292,3,620,550,R,0,NONE,0,1,313539,950
Control_TS_B,1,test,P,293,4,820,550,R,0,<rshift>,1,0,314539,277
Control_TS_B,1,test,P,294,4,820,550,P,1,<rshift>,1,1,315539,491
Control_TS_B,1,test,P,295,4,820,550,P,1,<rshift>,1,1,316539,354
Control_TS_B,1,test,P,296,2,820,350,P,1,<rshift>,1,1,317539,337
Control_TS_B,1,test,P,297,2,820,350,R,0,<rshift>,1,0,318539,367
Control_TS_B,1,test,P,298,4,820,550,P,1,NONE,0,0,319539,950
Control_TS_B,1,test,P,299,4,820,550,P,1,<rshift>,1,1,320539,366
Control_TS_B,1,test,P,300,1,620,350,R,0,<rshift>,1,0,321539,307
Control_TS_B,2,practice,R,1,1,620,350,R,1,NONE,0,0,325778,950
Control_TS_B,2,practice,R,2,1,620,350,P,0,NONE,0,1,327773,950
Control_TS_B,2,practice,R,3,1,620,350,R,1,NONE,0,0,328738,950
Control_TS_B,2,practice,R,4,4,820,550,P,0,<rshift>,1,0,330733,421
Control_TS_B,2,practice,R,5,4,820,550,R,1,<rshift>,1,1,332215,522
Control_TS_B,2,practice,R,6,3,620,550,R,1,<rshift>,1,1,332752,573
Control_TS_B,2,practice,R,7,4,820,550,R,1,<rshift>,1,1,333340,447
Control_TS_B,2,practice,R,8,2,820,350,R,1,<rshift>,1,1,333818,434
Control_TS_B,2,practice,R,9,3,620,550,R,1,<rshift>,1,1,334282,452
Control_TS_B,2,practice,R,10,3,620,550,R,1,NONE,0,0,334777,950
Control_TS_B,3,test,R,1,4,820,550,P,0,NONE,0,1,348480,950
Control_TS_B,3,test,R,2,1,620,350,R,1,<rshift>,1,1,349479,471
Control_TS_B,3,test,R,3,4,820,550,R,1,<rshift>,1,1,350479,405
Control_TS_B,3,test,R,4,3,620,550,R,1,<rshift>,1,1,351479,368
Control_TS_B,3,test,R,5,4,820,550,R,1,<rshift>,1,1,352479,385
Control_TS_B,3,test,R,6,3,620,550,R,1,<rshift>,1,1,353479,345
Control_TS_B,3,test,R,7,2,820,350,R,1,<rshift>,1,1,354479,323
Control_TS_B,3,test,R,8,3,620,550,R,1,<rshift>,1,1,355479,333
Control_TS_B,3,test,R,9,2,820,350,R,1,<rshift>,1,1,356479,360
Control_TS_B,3,test,R,10,2,820,350,R,1,<rshift>,1,1,357479,374
Control_TS_B,3,test,R,11,1,620,350,R,1,<rshift>,1,1,358479,334
Control_TS_B,3,test,R,12,2,820,350,R,1,<rshift>,1,1,359479,351
Control_TS_B,3,test,R,13,1,620,350,R,1,<rshift>,1,1,360480,394
Control_TS_B,3,test,R,14,1,620,350,R,1,<rshift>,1,1,361480,377
Control_TS_B,3,test,R,15,1,620,350,R,1,<rshift>,1,1,362479,341
Control_TS_B,3,test,R,16,2,820,350,R,1,<rshift>,1,1,363479,418
Control_TS_B,3,test,R,17,4,820,550,R,1,<rshift>,1,1,364479,391
Control_TS_B,3,test,R,18,4,820,550,P,0,<rshift>,1,0,365479,357
Control_TS_B,3,test,R,19,2,820,350,R,1,<rshift>,1,1,366479,455
Control_TS_B,3,test,R,20,1,620,350,R,1,<rshift>,1,1,367479,440
Control_TS_B,3,test,R,21,2,820,350,R,1,<rshift>,1,1,368479,363
Control_TS_B,3,test,R,22,3,620,550,P,0,NONE,0,1,369479,950
Control_TS_B,3,test,R,23,1,620,350,P,0,NONE,0,1,370479,950
Control_TS_B,3,test,R,24,3,620,550,R,1,<rshift>,1,1,371479,376
Control_TS_B,3,test,R,25,3,620,550,R,1,<rshift>,1,1,372480,370
Control_TS_B,3,test,R,26,2,820,350,R,1,<rshift>,1,1,373479,391
Control_TS_B,3,test,R,27,1,620,350,R,1,<rshift>,1,1,374479,387
Control_TS_B,3,test,R,28,2,820,350,R,1,<rshift>,1,1,375479,365
Control_TS_B,3,test,R,29,2,820,350,R,1,<rshift>,1,1,376480,326
Control_TS_B,3,test,R,30,4,820,550,P,0,<rshift>,1,0,377479,361
Control_TS_B,3,test,R,31,3,620,550,P,0,NONE,0,1,378479,950
Control_TS_B,3,test,R,32,2,820,350,R,1,<rshift>,1,1,379479,452
Control_TS_B,3,test,R,33,2,820,350,R,1,<rshift>,1,1,380479,336
Control_TS_B,3,test,R,34,4,820,550,R,1,<rshift>,1,1,381479,334
Control_TS_B,3,test,R,35,4,820,550,R,1,<rshift>,1,1,382479,410
Control_TS_B,3,test,R,36,1,620,350,R,1,<rshift>,1,1,383480,415
Control_TS_B,3,test,R,37,3,620,550,R,1,<rshift>,1,1,384480,339
Control_TS_B,3,test,R,38,1,620,350,R,1,<rshift>,1,1,385479,326
Control_TS_B,3,test,R,39,2,820,350,R,1,<rshift>,1,1,386479,343
Control_TS_B,3,test,R,40,4,820,550,R,1,<rshift>,1,1,387479,326
Control_TS_B,3,test,R,41,1,620,350,R,1,<rshift>,1,1,388479,340
Control_TS_B,3,test,R,42,2,820,350,P,0,NONE,0,1,389479,950
Control_TS_B,3,test,R,43,1,620,350,R,1,<rshift>,1,1,390479,562
Control_TS_B,3,test,R,44,3,620,550,R,1,<rshift>,1,1,391479,388
Control_TS_B,3,test,R,45,3,620,550,R,1,<rshift>,1,1,392479,416
Control_TS_B,3,test,R,46,1,620,350,R,1,<rshift>,1,1,393479,348
Control_TS_B,3,test,R,47,2,820,350,R,1,<rshift>,1,1,394479,436
Control_TS_B,3,test,R,48,1,620,350,R,1,<rshift>,1,1,395479,720
Control_TS_B,3,test,R,49,4,820,550,R,1,<rshift>,1,1,396479,268
Control_TS_B,3,test,R,50,1,620,350,P,0,<rshift>,1,0,397480,303
Control_TS_B,3,test,R,51,4,820,550,R,1,<rshift>,1,1,398479,387
Control_TS_B,3,test,R,52,2,820,350,P,0,<rshift>,1,0,399479,377
Control_TS_B,3,test,R,53,2,820,350,R,1,<rshift>,1,1,400479,453
Control_TS_B,3,test,R,54,3,620,550,R,1,<rshift>,1,1,401479,430
Control_TS_B,3,test,R,55,1,620,350,R,1,<rshift>,1,1,402479,390
Control_TS_B,3,test,R,56,2,820,350,R,1,<rshift>,1,1,403479,410
Control_TS_B,3,test,R,57,4,820,550,R,1,<rshift>,1,1,404479,383
Control_TS_B,3,test,R,58,2,820,350,P,0,NONE,0,1,405479,950
Control_TS_B,3,test,R,59,4,820,550,R,1,<rshift>,1,1,406479,452
Control_TS_B,3,test,R,60,2,820,350,R,1,<rshift>,1,1,407479,364
Control_TS_B,3,test,R,61,1,620,350,P,0,<rshift>,1,0,408479,405
Control_TS_B,3,test,R,62,4,820,550,R,1,<rshift>,1,1,409479,338
Control_TS_B,3,test,R,63,3,620,550,R,1,<rshift>,1,1,410479,515
Control_TS_B,3,test,R,64,4,820,550,R,1,<rshift>,1,1,411479,405
Control_TS_B,3,test,R,65,2,820,350,R,1,<rshift>,1,1,412479,306
Control_TS_B,3,test,R,66,2,820,350,R,1,<rshift>,1,1,413479,362
Control_TS_B,3,test,R,67,4,820,550,R,1,<rshift>,1,1,414479,335
Control_TS_B,3,test,R,68,1,620,350,R,1,<rshift>,1,1,415479,487
Control_TS_B,3,test,R,69,3,620,550,R,1,<rshift>,1,1,416479,451
Control_TS_B,3,test,R,70,4,820,550,R,1,<rshift>,1,1,417479,336
Control_TS_B,3,test,R,71,3,620,550,R,1,<rshift>,1,1,418479,314
Control_TS_B,3,test,R,72,3,620,550,R,1,<rshift>,1,1,419479,378
Control_TS_B,3,test,R,73,3,620,550,R,1,<rshift>,1,1,420479,348
Control_TS_B,3,test,R,74,4,820,550,P,0,<rshift>,1,0,421479,381
Control_TS_B,3,test,R,75,4,820,550,R,1,<rshift>,1,1,422479,414
Control_TS_B,3,test,R,76,2,820,350,R,1,<rshift>,1,1,423480,433
Control_TS_B,3,test,R,77,1,620,350,P,0,NONE,0,1,424479,950
Control_TS_B,3,test,R,78,2,820,350,R,1,<rshift>,1,1,425479,408
Control_TS_B,3,test,R,79,1,620,350,P,0,NONE,0,1,426479,950
Control_TS_B,3,test,R,80,1,620,350,R,1,<rshift>,1,1,427479,586
Control_TS_B,3,test,R,81,4,820,550,R,1,<rshift>,1,1,428479,358
Control_TS_B,3,test,R,82,4,820,550,R,1,<rshift>,1,1,429479,492
Control_TS_B,3,test,R,83,4,820,550,R,1,<rshift>,1,1,430479,384
Control_TS_B,3,test,R,84,2,820,350,R,1,<rshift>,1,1,431479,455
Control_TS_B,3,test,R,85,3,620,550,R,1,<rshift>,1,1,432479,419
Control_TS_B,3,test,R,86,4,820,550,R,1,<rshift>,1,1,433479,384
Control_TS_B,3,test,R,87,4,820,550,R,1,<rshift>,1,1,434479,382
Control_TS_B,3,test,R,88,1,620,350,R,1,<rshift>,1,1,435479,382
Control_TS_B,3,test,R,89,1,620,350,P,0,<rshift>,1,0,436479,341
Control_TS_B,3,test,R,90,2,820,350,P,0,NONE,0,1,437479,950
Control_TS_B,3,test,R,91,2,820,350,R,1,<rshift>,1,1,438479,471
Control_TS_B,3,test,R,92,1,620,350,R,1,<rshift>,1,1,439479,483
Control_TS_B,3,test,R,93,2,820,350,R,1,<rshift>,1,1,440479,332
Control_TS_B,3,test,R,94,4,820,550,R,1,<rshift>,1,1,441479,329
Control_TS_B,3,test,R,95,2,820,350,R,1,<rshift>,1,1,442479,349
Control_TS_B,3,test,R,96,4,820,550,R,1,<rshift>,1,1,443479,381
Control_TS_B,3,test,R,97,2,820,350,R,1,<rshift>,1,1,444479,291
Control_TS_B,3,test,R,98,2,820,350,R,1,<rshift>,1,1,445479,364
Control_TS_B,3,test,R,99,4,820,550,R,1,<rshift>,1,1,446479,370
Control_TS_B,3,test,R,100,1,620,350,R,1,<rshift>,1,1,447479,399
Control_TS_B,3,test,R,101,2,820,350,P,0,<rshift>,1,0,448480,296
Control_TS_B,3,test,R,102,4,820,550,R,1,<rshift>,1,1,449479,297
Control_TS_B,3,test,R,103,2,820,350,R,1,<rshift>,1,1,450479,312
Control_TS_B,3,test,R,104,3,620,550,R,1,<rshift>,1,1,451479,387
Control_TS_B,3,test,R,105,2,820,350,R,1,<rshift>,1,1,452479,356
Control_TS_B,3,test,R,106,1,620,350,R,1,<rshift>,1,1,453479,338
Control_TS_B,3,test,R,107,2,820,350,R,1,<rshift>,1,1,454480,396
Control_TS_B,3,test,R,108,1,620,350,P,0,NONE,0,1,455480,950
Control_TS_B,3,test,R,109,2,820,350,R,1,<rshift>,1,1,456479,523
Control_TS_B,3,test,R,110,4,820,550,R,1,<rshift>,1,1,457479,402
Control_TS_B,3,test,R,111,1,620,350,R,1,<rshift>,1,1,458479,403
Control_TS_B,3,test,R,112,3,620,550,R,1,<rshift>,1,1,459479,387
Control_TS_B,3,test,R,113,1,620,350,R,1,<rshift>,1,1,460479,367
Control_TS_B,3,test,R,114,2,820,350,P,0,<rshift>,1,0,461480,337
Control_TS_B,3,test,R,115,1,620,350,R,1,<rshift>,1,1,462479,446
Control_TS_B,3,test,R,116,3,620,550,R,1,<rshift>,1,1,463479,324
Control_TS_B,3,test,R,117,2,820,350,P,0,<rshift>,1,0,464479,369
Control_TS_B,3,test,R,118,4,820,550,P,0,NONE,0,1,465479,950
Control_TS_B,3,test,R,119,1,620,350,R,1,<rshift>,1,1,466479,372
Control_TS_B,3,test,R,120,3,620,550,R,1,<rshift>,1,1,467479,434
Control_TS_B,3,test,R,121,1,620,350,R,1,<rshift>,1,1,468479,515
Control_TS_B,3,test,R,122,3,620,550,R,1,<rshift>,1,1,469479,367
Control_TS_B,3,test,R,123,1,620,350,R,1,<rshift>,1,1,470479,330
Control_TS_B,3,test,R,124,2,820,350,R,1,<rshift>,1,1,471479,411
Control_TS_B,3,test,R,125,1,620,350,R,1,<rshift>,1,1,472479,327
Control_TS_B,3,test,R,126,4,820,550,R,1,<rshift>,1,1,473480,325
Control_TS_B,3,test,R,127,4,820,550,R,1,<rshift>,1,1,474480,407
Control_TS_B,3,test,R,128,4,820,550,R,1,NONE,0,0,475479,950
Control_TS_B,3,test,R,129,2,820,350,R,1,<rshift>,1,1,476479,427
Control_TS_B,3,test,R,130,3,620,550,R,1,<rshift>,1,1,477479,349
Control_TS_B,3,test,R,131,2,820,350,P,0,NONE,0,1,478479,951
Control_TS_B,3,test,R,132,4,820,550,P,0,NONE,0,1,479479,950
Control_TS_B,3,test,R,133,1,620,350,P,0,<rshift>,1,0,480479,277
Control_TS_B,3,test,R,134,1,620,350,R,1,<rshift>,1,1,481479,545
Control_TS_B,3,test,R,135,3,620,550,P,0,NONE,0,1,482479,950
Control_TS_B,3,test,R,136,4,820,550,R,1,<rshift>,1,1,483479,490
Control_TS_B,3,test,R,137,1,620,350,R,1,<rshift>,1,1,484479,313
Control_TS_B,3,test,R,138,4,820,550,R,1,<rshift>,1,1,485480,262
Control_TS_B,3,test,R,139,2,820,350,R,1,<rshift>,1,1,486479,531
Control_TS_B,3,test,R,140,3,620,550,R,1,<rshift>,1,1,487479,414
Control_TS_B,3,test,R,141,4,820,550,R,1,<rshift>,1,1,488479,567
Control_TS_B,3,test,R,142,1,620,350,R,1,<rshift>,1,1,489479,310
Control_TS_B,3,test,R,143,4,820,550,R,1,<rshift>,1,1,490479,330
Control_TS_B,3,test,R,144,3,620,550,R,1,<rshift>,1,1,491479,362
Control_TS_B,3,test,R,145,3,620,550,R,1,<rshift>,1,1,492479,566
Control_TS_B,3,test,R,146,2,820,350,R,1,<rshift>,1,1,493479,361
Control_TS_B,3,test,R,147,3,620,550,R,1,<rshift>,1,1,494479,292
Control_TS_B,3,test,R,148,4,820,550,R,1,<rshift>,1,1,495479,307
Control_TS_B,3,test,R,149,2,820,350,R,1,<rshift>,1,1,496479,329
Control_TS_B,3,test,R,150,3,620,550,R,1,<rshift>,1,1,497479,336
Control_TS_B,3,test,R,151,1,620,350,R,1,<rshift>,1,1,498479,304
Control_TS_B,3,test,R,152,1,620,350,R,1,<rshift>,1,1,499479,328
Control_TS_B,3,test,R,153,4,820,550,R,1,<rshift>,1,1,500479,339
Control_TS_B,3,test,R,154,1,620,350,R,1,<rshift>,1,1,501479,318
Control_TS_B,3,test,R,155,1,620,350,R,1,<rshift>,1,1,502479,325
Control_TS_B,3,test,R,156,4,820,550,R,1,<rshift>,1,1,503479,310
Control_TS_B,3,test,R,157,2,820,350,R,1,<rshift>,1,1,504479,305
Control_TS_B,3,test,R,158,1,620,350,R,1,<rshift>,1,1,505480,301
Control_TS_B,3,test,R,159,3,620,550,P,0,<rshift>,1,0,506479,303
Control_TS_B,3,test,R,160,4,820,550,R,1,<rshift>,1,1,507479,474
Control_TS_B,3,test,R,161,4,820,550,P,0,NONE,0,1,508480,950
Control_TS_B,3,test,R,162,3,620,550,R,1,<rshift>,1,1,509479,409
Control_TS_B,3,test,R,163,1,620,350,R,1,<rshift>,1,1,510479,340
Control_TS_B,3,test,R,164,4,820,550,R,1,<rshift>,1,1,511479,320
Control_TS_B,3,test,R,165,2,820,350,P,0,NONE,0,1,512479,950
Control_TS_B,3,test,R,166,3,620,550,R,1,NONE,0,0,513479,950
Control_TS_B,3,test,R,167,3,620,550,P,0,NONE,0,1,514479,950
Control_TS_B,3,test,R,168,4,820,550,R,1,<rshift>,1,1,515479,313
Control_TS_B,3,test,R,169,4,820,550,R,1,<rshift>,1,1,516479,322
Control_TS_B,3,test,R,170,4,820,550,R,1,<rshift>,1,1,517479,331
Control_TS_B,3,test,R,171,3,620,550,P,0,NONE,0,1,518479,950
Control_TS_B,3,test,R,172,2,820,350,R,1,<rshift>,1,1,519479,332
Control_TS_B,3,test,R,173,4,820,550,P,0,<rshift>,1,0,520479,301
Control_TS_B,3,test,R,174,1,620,350,R,1,<rshift>,1,1,521479,464
Control_TS_B,3,test,R,175,4,820,550,R,1,<rshift>,1,1,522480,515
Control_TS_B,3,test,R,176,4,820,550,R,1,<rshift>,1,1,523479,379
Control_TS_B,3,test,R,177,3,620,550,R,1,<rshift>,1,1,524479,339
Control_TS_B,3,test,R,178,2,820,350,R,1,<rshift>,1,1,525479,332
Control_TS_B,3,test,R,179,3,620,550,R,1,<rshift>,1,1,526479,374
Control_TS_B,3,test,R,180,4,820,550,R,1,<rshift>,1,1,527479,309
Control_TS_B,3,test,R,181,3,620,550,R,1,<rshift>,1,1,528479,374
Control_TS_B,3,test,R,182,2,820,350,P,0,<rshift>,1,0,529480,337
Control_TS_B,3,test,R,183,4,820,550,P,0,NONE,0,1,530479,950
Control_TS_B,3,test,R,184,1,620,350,R,1,NONE,0,0,531479,950
Control_TS_B,3,test,R,185,4,820,550,R,1,<rshift>,1,1,532479,467
Control_TS_B,3,test,R,186,3,620,550,R,1,<rshift>,1,1,533479,494
Control_TS_B,3,test,R,187,3,620,550,R,1,<rshift>,1,1,534480,372
Control_TS_B,3,test,R,188,2,820,350,P,0,<rshift>,1,0,535479,390
Control_TS_B,3,test,R,189,2,820,350,R,1,<rshift>,1,1,536479,515
Control_TS_B,3,test,R,190,3,620,550,R,1,<rshift>,1,1,537479,458
Control_TS_B,3,test,R,191,4,820,550,R,1,<rshift>,1,1,538479,351
Control_TS_B,3,test,R,192,1,620,350,P,0,<rshift>,1,0,539479,304
Control_TS_B,3,test,R,193,3,620,550,P,0,<rshift>,1,0,540479,385
Control_TS_B,3,test,R,194,1,620,350,R,1,<rshift>,1,1,541479,515
Control_TS_B,3,test,R,195,3,620,550,R,1,<rshift>,1,1,542479,492
Control_TS_B,3,test,R,196,2,820,350,R,1,<rshift>,1,1,543479,393
Control_TS_B,3,test,R,197,2,820,350,R,1,<rshift>,1,1,544479,342
Control_TS_B,3,test,R,198,2,820,350,R,1,<rshift>,1,1,545479,342
Control_TS_B,3,test,R,199,1,620,350,R,1,<rshift>,1,1,546479,390
Control_TS_B,3,test,R,200,3,620,550,R,1,<rshift>,1,1,547479,364
Control_TS_B,3,test,R,201,2,820,350,P,0,NONE,0,1,548479,950
Control_TS_B,3,test,R,202,4,820,550,R,1,<rshift>,1,1,549479,485
Control_TS_B,3,test,R,203,2,820,350,P,0,NONE,0,1,550479,950
Control_TS_B,3,test,R,204,2,820,350,R,1,<rshift>,1,1,551479,387
Control_TS_B,3,test,R,205,3,620,550,R,1,<rshift>,1,1,552479,429
Control_TS_B,3,test,R,206,1,620,350,P,0,NONE,0,1,553479,950
Control_TS_B,3,test,R,207,1,620,350,R,1,<rshift>,1,1,554479,730
Control_TS_B,3,test,R,208,3,620,550,R,1,<rshift>,1,1,555479,347
Control_TS_B,3,test,R,209,1,620,350,R,1,<rshift>,1,1,556479,458
Control_TS_B,3,test,R,210,3,620,550,R,1,<rshift>,1,1,557479,403
Control_TS_B,3,test,R,211,3,620,550,R,1,<rshift>,1,1,558479,458
Control_TS_B,3,test,R,212,2,820,350,R,1,<rshift>,1,1,559479,383
Control_TS_B,3,test,R,213,2,820,350,R,1,<rshift>,1,1,560479,393
Control_TS_B,3,test,R,214,1,620,350,R,1,<rshift>,1,1,561479,430
Control_TS_B,3,test,R,215,1,620,350,P,0,<rshift>,1,0,562479,302
Control_TS_B,3,test,R,216,4,820,550,R,1,<rshift>,1,1,563479,409
Control_TS_B,3,test,R,217,3,620,550,R,1,<rshift>,1,1,564479,385
Control_TS_B,3,test,R,218,3,620,550,R,1,<rshift>,1,1,565479,572
Control_TS_B,3,test,R,219,4,820,550,R,1,<rshift>,1,1,566479,361
Control_TS_B,3,test,R,220,4,820,550,P,0,<rshift>,1,0,567479,348
Control_TS_B,3,test,R,221,2,820,350,R,1,<rshift>,1,1,568479,167
Control_TS_B,3,test,R,222,2,820,350,R,1,<rshift>,1,1,569479,530
Control_TS_B,3,test,R,223,4,820,550,P,0,NONE,0,1,570479,950
Control_TS_B,3,test,R,224,2,820,350,R,1,<rshift>,1,1,571479,515
Control_TS_B,3,test,R,225,1,620,350,P,0,<rshift>,1,0,572479,393
Control_TS_B,3,test,R,226,2,820,350,R,1,<rshift>,1,1,573479,435
Control_TS_B,3,test,R,227,3,620,550,R,1,<rshift>,1,1,574479,495
Control_TS_B,3,test,R,228,1,620,350,R,1,<rshift>,1,1,575479,405
Control_TS_B,3,test,R,229,2,820,350,R,1,<rshift>,1,1,576479,288
Control_TS_B,3,test,R,230,2,820,350,P,0,<rshift>,1,0,577479,336
Control_TS_B,3,test,R,231,3,620,550,R,1,<rshift>,1,1,578479,545
Control_TS_B,3,test,R,232,1,620,350,R,1,<rshift>,1,1,579479,380
Control_TS_B,3,test,R,233,1,620,350,R,1,<rshift>,1,1,580479,367
Control_TS_B,3,test,R,234,4,820,550,R,1,<rshift>,1,1,581479,470
Control_TS_B,3,test,R,235,4,820,550,R,1,<rshift>,1,1,582479,493
Control_TS_B,3,test,R,236,4,820,550,R,1,<rshift>,1,1,583479,381
Control_TS_B,3,test,R,237,4,820,550,P,0,<rshift>,1,0,584479,304
Control_TS_B,3,test,R,238,2,820,350,P,0,<rshift>,1,0,585479,291
Control_TS_B,3,test,R,239,3,620,550,P,0,NONE,0,1,586479,950
Control_TS_B,3,test,R,240,4,820,550,R,1,<rshift>,1,1,587479,585
Control_TS_B,3,test,R,241,3,620,550,P,0,NONE,0,1,588479,950
Control_TS_B,3,test,R,242,3,620,550,R,1,<rshift>,1,1,589479,450
Control_TS_B,3,test,R,243,4,820,550,P,0,NONE,0,1,590479,950
Control_TS_B,3,test,R,244,3,620,550,R,1,<rshift>,1,1,591479,515
Control_TS_B,3,test,R,245,2,820,350,R,1,<rshift>,1,1,592479,465
Control_TS_B,3,test,R,246,4,820,550,R,1,<rshift>,1,1,593479,515
Control_TS_B,3,test,R,247,1,620,350,R,1,<rshift>,1,1,594479,411
Control_TS_B,3,test,R,248,4,820,550,R,1,<rshift>,1,1,595479,354
Control_TS_B,3,test,R,249,1,620,350,R,1,<rshift>,1,1,596479,352
Control_TS_B,3,test,R,250,3,620,550,R,1,<rshift>,1,1,597479,405
Control_TS_B,3,test,R,251,3,620,550,P,0,<rshift>,1,0,598479,337
Control_TS_B,3,test,R,252,1,620,350,P,0,<rshift>,1,0,599479,305
Control_TS_B,3,test,R,253,3,620,550,R,1,<rshift>,1,1,600479,471
Control_TS_B,3,test,R,254,2,820,350,R,1,<rshift>,1,1,601479,470
Control_TS_B,3,test,R,255,4,820,550,R,1,<rshift>,1,1,602479,455
Control_TS_B,3,test,R,256,2,820,350,R,1,<rshift>,1,1,603479,477
Control_TS_B,3,test,R,257,3,620,550,P,0,NONE,0,1,604479,951
Control_TS_B,3,test,R,258,1,620,350,R,1,<rshift>,1,1,605479,282
Control_TS_B,3,test,R,259,1,620,350,P,0,<rshift>,1,0,606479,388
Control_TS_B,3,test,R,260,1,620,350,R,1,<rshift>,1,1,607479,489
Control_TS_B,3,test,R,261,2,820,350,P,0,NONE,0,1,608479,950
Control_TS_B,3,test,R,262,3,620,550,R,1,<rshift>,1,1,609479,575
Control_TS_B,3,test,R,263,4,820,550,R,1,<rshift>,1,1,610479,434
Control_TS_B,3,test,R,264,4,820,550,R,1,<rshift>,1,1,611479,530
Control_TS_B,3,test,R,265,1,620,350,R,1,<rshift>,1,1,612479,352
Control_TS_B,3,test,R,266,3,620,550,R,1,<rshift>,1,1,613479,475
Control_TS_B,3,test,R,267,2,820,350,R,1,<rshift>,1,1,614479,309
Control_TS_B,3,test,R,268,3,620,550,R,1,<rshift>,1,1,615479,589
Control_TS_B,3,test,R,269,2,820,350,R,1,<rshift>,1,1,616479,310
Control_TS_B,3,test,R,270,2,820,350,P,0,<rshift>,1,0,617480,362
Control_TS_B,3,test,R,271,4,820,550,P,0,<rshift>,1,0,618479,447
Control_TS_B,3,test,R,272,1,620,350,R,1,<rshift>,1,1,619479,538
Control_TS_B,3,test,R,273,2,820,350,R,1,<rshift>,1,1,620479,408
Control_TS_B,3,test,R,274,1,620,350,R,1,<rshift>,1,1,621479,490
Control_TS_B,3,test,R,275,1,620,350,R,1,<rshift>,1,1,622479,335
Control_TS_B,3,test,R,276,1,620,350,P,0,<rshift>,1,0,623479,355
Control_TS_B,3,test,R,277,1,620,350,R,1,NONE,0,0,624479,950
Control_TS_B,3,test,R,278,2,820,350,P,0,<rshift>,1,0,625479,312
Control_TS_B,3,test,R,279,3,620,550,R,1,<rshift>,1,1,626479,492
Control_TS_B,3,test,R,280,1,620,350,R,1,<rshift>,1,1,627479,410
Control_TS_B,3,test,R,281,2,820,350,R,1,<rshift>,1,1,628479,325
Control_TS_B,3,test,R,282,4,820,550,R,1,<rshift>,1,1,629479,549
Control_TS_B,3,test,R,283,4,820,550,P,0,NONE,0,1,630479,950
Control_TS_B,3,test,R,284,4,820,550,R,1,<rshift>,1,1,631479,493
Control_TS_B,3,test,R,285,1,620,350,R,1,<rshift>,1,1,632479,387
Control_TS_B,3,test,R,286,1,620,350,R,1,<rshift>,1,1,633479,552
Control_TS_B,3,test,R,287,4,820,550,R,1,<rshift>,1,1,634479,337
Control_TS_B,3,test,R,288,1,620,350,R,1,<rshift>,1,1,635479,446
Control_TS_B,3,test,R,289,3,620,550,R,1,<rshift>,1,1,636479,545
Control_TS_B,3,test,R,290,3,620,550,R,1,<rshift>,1,1,637479,870
Control_TS_B,3,test,R,291,4,820,550,R,1,<rshift>,1,1,638479,515
Control_TS_B,3,test,R,292,2,820,350,R,1,<rshift>,1,1,639479,459
Control_TS_B,3,test,R,293,2,820,350,R,1,<rshift>,1,1,640479,334
Control_TS_B,3,test,R,294,1,620,350,R,1,<rshift>,1,1,641479,362
Control_TS_B,3,test,R,295,3,620,550,R,1,<rshift>,1,1,642479,302
Control_TS_B,3,test,R,296,1,620,350,P,0,NONE,0,1,643479,950
Control_TS_B,3,test,R,297,4,820,550,R,1,NONE,0,0,644479,950
Control_TS_B,3,test,R,298,2,820,350,R,1,<rshift>,1,1,645479,309
Control_TS_B,3,test,R,299,4,820,550,R,1,<rshift>,1,1,646479,336
Control_TS_B,3,test,R,300,3,620,550,R,1,<rshift>,1,1,647479,295
