subnum,block,type,correctresponse,trial,choice,x,y,stim,present,response,responded,corr,starttime,rt
Control_TS_3_A,0,practice,P,1,3,620,550,P,1,NONE,0,0,66437,950
Control_TS_3_A,0,practice,P,2,3,620,550,R,0,<rshift>,1,0,68403,339
Control_TS_3_A,0,practice,P,3,1,620,350,P,1,<rshift>,1,1,69760,463
Control_TS_3_A,0,practice,P,4,4,820,550,P,1,<rshift>,1,1,70232,585
Control_TS_3_A,0,practice,P,5,4,820,550,P,1,<rshift>,1,1,70820,632
Control_TS_3_A,0,practice,P,6,2,820,350,P,1,<rshift>,1,1,71459,510
Control_TS_3_A,0,practice,P,7,3,620,550,R,0,<rshift>,1,0,72435,375
Control_TS_3_A,0,practice,P,8,1,620,350,P,1,<rshift>,1,1,73830,506
Control_TS_3_A,0,practice,P,9,4,820,550,P,1,<rshift>,1,1,74436,507
Control_TS_3_A,0,practice,P,10,1,620,350,P,1,<rshift>,1,1,75435,685
Control_TS_3_A,1,test,P,1,3,620,550,P,1,<rshift>,1,1,87329,460
Control_TS_3_A,1,test,P,2,3,620,550,P,1,<rshift>,1,1,88329,310
Control_TS_3_A,1,test,P,3,1,620,350,P,1,<rshift>,1,1,89329,405
Control_TS_3_A,1,test,P,4,4,820,550,P,1,<rshift>,1,1,90328,356
Control_TS_3_A,1,test,P,5,3,620,550,P,1,<rshift>,1,1,91328,398
Control_TS_3_A,1,test,P,6,2,820,350,P,1,<rshift>,1,1,92328,417
Control_TS_3_A,1,test,P,7,2,820,350,P,1,<rshift>,1,1,93328,342
Control_TS_3_A,1,test,P,8,2,820,350,P,1,<rshift>,1,1,94328,328
Control_TS_3_A,1,test,P,9,4,820,550,P,1,<rshift>,1,1,95328,296
Control_TS_3_A,1,test,P,10,4,820,550,P,1,<rshift>,1,1,96328,311
Control_TS_3_A,1,test,P,11,1,620,350,P,1,<rshift>,1,1,97328,335
Control_TS_3_A,1,test,P,12,2,820,350,P,1,<rshift>,1,1,98330,303
Control_TS_3_A,1,test,P,13,2,820,350,P,1,<rshift>,1,1,99329,321
Control_TS_3_A,1,test,P,14,2,820,350,P,1,<rshift>,1,1,100329,323
Control_TS_3_A,1,test,P,15,3,620,550,R,0,<rshift>,1,0,101329,462
Control_TS_3_A,1,test,P,16,1,620,350,R,0,<rshift>,1,0,102328,438
Control_TS_3_A,1,test,P,17,3,620,550,P,1,<rshift>,1,1,103328,470
Control_TS_3_A,1,test,P,18,3,620,550,R,0,NONE,0,1,104328,950
Control_TS_3_A,1,test,P,19,4,820,550,P,1,<rshift>,1,1,105330,343
Control_TS_3_A,1,test,P,20,1,620,350,P,1,<rshift>,1,1,106328,389
Control_TS_3_A,1,test,P,21,4,820,550,P,1,<rshift>,1,1,107328,482
Control_TS_3_A,1,test,P,22,1,620,350,R,0,<rshift>,1,0,108329,298
Control_TS_3_A,1,test,P,23,4,820,550,P,1,<rshift>,1,1,109329,374
Control_TS_3_A,1,test,P,24,3,620,550,R,0,<rshift>,1,0,110328,373
Control_TS_3_A,1,test,P,25,1,620,350,P,1,<rshift>,1,1,111329,351
Control_TS_3_A,1,test,P,26,3,620,550,P,1,<rshift>,1,1,112328,388
Control_TS_3_A,1,test,P,27,1,620,350,R,0,<rshift>,1,0,113328,345
Control_TS_3_A,1,test,P,28,1,620,350,P,1,<rshift>,1,1,114329,370
Control_TS_3_A,1,test,P,29,4,820,550,P,1,<rshift>,1,1,115330,428
Control_TS_3_A,1,test,P,30,3,620,550,P,1,NONE,0,0,116328,950
Control_TS_3_A,1,test,P,31,2,820,350,R,0,<rshift>,1,0,117328,362
Control_TS_3_A,1,test,P,32,3,620,550,R,0,<rshift>,1,0,118330,363
Control_TS_3_A,1,test,P,33,1,620,350,P,1,<rshift>,1,1,119330,374
Control_TS_3_A,1,test,P,34,3,620,550,P,1,<rshift>,1,1,120328,365
Control_TS_3_A,1,test,P,35,4,820,550,P,1,<rshift>,1,1,121330,374
Control_TS_3_A,1,test,P,36,2,820,350,P,1,<rshift>,1,1,122328,390
Control_TS_3_A,1,test,P,37,4,820,550,P,1,<rshift>,1,1,123329,377
Control_TS_3_A,1,test,P,38,3,620,550,P,1,<rshift>,1,1,124328,398
Control_TS_3_A,1,test,P,39,3,620,550,P,1,<rshift>,1,1,125328,407
Control_TS_3_A,1,test,P,40,2,820,350,P,1,<rshift>,1,1,126328,424
Control_TS_3_A,1,test,P,41,1,620,350,P,1,<rshift>,1,1,127330,372
Control_TS_3_A,1,test,P,42,4,820,550,P,1,<rshift>,1,1,128330,373
Control_TS_3_A,1,test,P,43,4,820,550,P,1,<rshift>,1,1,129330,341
Control_TS_3_A,1,test,P,44,2,820,350,R,0,NONE,0,1,130328,950
Control_TS_3_A,1,test,P,45,4,820,550,P,1,<rshift>,1,1,131328,358
Control_TS_3_A,1,test,P,46,3,620,550,R,0,NONE,0,1,132330,950
Control_TS_3_A,1,test,P,47,3,620,550,P,1,<rshift>,1,1,133328,405
Control_TS_3_A,1,test,P,48,3,620,550,P,1,<rshift>,1,1,134328,346
Control_TS_3_A,1,test,P,49,3,620,550,P,1,<rshift>,1,1,135328,363
Control_TS_3_A,1,test,P,50,3,620,550,P,1,<rshift>,1,1,136328,360
Control_TS_3_A,1,test,P,51,4,820,550,R,0,NONE,0,1,137328,950
Control_TS_3_A,1,test,P,52,4,820,550,R,0,<rshift>,1,0,138328,353
Control_TS_3_A,1,test,P,53,4,820,550,P,1,<rshift>,1,1,139330,358
Control_TS_3_A,1,test,P,54,2,820,350,P,1,<rshift>,1,1,140330,384
Control_TS_3_A,1,test,P,55,3,620,550,P,1,<rshift>,1,1,141330,350
Control_TS_3_A,1,test,P,56,3,620,550,P,1,<rshift>,1,1,142330,436
Control_TS_3_A,1,test,P,57,3,620,550,R,0,NONE,0,1,143328,950
Control_TS_3_A,1,test,P,58,1,620,350,R,0,NONE,0,1,144328,951
Control_TS_3_A,1,test,P,59,2,820,350,P,1,<rshift>,1,1,145330,455
Control_TS_3_A,1,test,P,60,1,620,350,P,1,<rshift>,1,1,146328,476
Control_TS_3_A,1,test,P,61,4,820,550,P,1,<rshift>,1,1,147329,462
Control_TS_3_A,1,test,P,62,3,620,550,P,1,<rshift>,1,1,148328,365
Control_TS_3_A,1,test,P,63,4,820,550,P,1,<rshift>,1,1,149330,327
Control_TS_3_A,1,test,P,64,3,620,550,P,1,<rshift>,1,1,150328,553
Control_TS_3_A,1,test,P,65,4,820,550,P,1,<rshift>,1,1,151330,348
Control_TS_3_A,1,test,P,66,2,820,350,R,0,<rshift>,1,0,152330,441
Control_TS_3_A,1,test,P,67,4,820,550,P,1,<rshift>,1,1,153329,420
Control_TS_3_A,1,test,P,68,4,820,550,P,1,<rshift>,1,1,154330,374
Control_TS_3_A,1,test,P,69,4,820,550,R,0,NONE,0,1,155330,950
Control_TS_3_A,1,test,P,70,3,620,550,P,1,<rshift>,1,1,156328,384
Control_TS_3_A,1,test,P,71,3,620,550,P,1,<rshift>,1,1,157330,386
Control_TS_3_A,1,test,P,72,4,820,550,P,1,<rshift>,1,1,158330,390
Control_TS_3_A,1,test,P,73,4,820,550,P,1,<rshift>,1,1,159330,579
Control_TS_3_A,1,test,P,74,3,620,550,P,1,<rshift>,1,1,160328,505
Control_TS_3_A,1,test,P,75,1,620,350,P,1,<rshift>,1,1,161328,419
Control_TS_3_A,1,test,P,76,3,620,550,P,1,<rshift>,1,1,162330,432
Control_TS_3_A,1,test,P,77,3,620,550,P,1,<rshift>,1,1,163328,413
Control_TS_3_A,1,test,P,78,3,620,550,P,1,<rshift>,1,1,164329,362
Control_TS_3_A,1,test,P,79,4,820,550,P,1,<rshift>,1,1,165328,438
Control_TS_3_A,1,test,P,80,2,820,350,P,1,<rshift>,1,1,166328,416
Control_TS_3_A,1,test,P,81,1,620,350,P,1,<rshift>,1,1,167329,411
Control_TS_3_A,1,test,P,82,4,820,550,R,0,NONE,0,1,168328,950
Control_TS_3_A,1,test,P,83,3,620,550,P,1,<rshift>,1,1,169330,593
Control_TS_3_A,1,test,P,84,4,820,550,R,0,NONE,0,1,170328,950
Control_TS_3_A,1,test,P,85,2,820,350,R,0,<rshift>,1,0,171328,331
Control_TS_3_A,1,test,P,86,4,820,550,R,0,<rshift>,1,0,172330,361
Control_TS_3_A,1,test,P,87,4,820,550,P,1,<rshift>,1,1,173328,352
Control_TS_3_A,1,test,P,88,3,620,550,P,1,<rshift>,1,1,174328,367
Control_TS_3_A,1,test,P,89,3,620,550,R,0,NONE,0,1,175330,950
Control_TS_3_A,1,test,P,90,1,620,350,R,0,NONE,0,1,176329,950
Control_TS_3_A,1,test,P,91,3,620,550,P,1,<rshift>,1,1,177328,457
Control_TS_3_A,1,test,P,92,4,820,550,P,1,<rshift>,1,1,178328,387
Control_TS_3_A,1,test,P,93,2,820,350,R,0,NONE,0,1,179328,950
Control_TS_3_A,1,test,P,94,2,820,350,P,1,<rshift>,1,1,180328,399
Control_TS_3_A,1,test,P,95,1,620,350,P,1,<rshift>,1,1,181328,362
Control_TS_3_A,1,test,P,96,4,820,550,R,0,NONE,0,1,182330,950
Control_TS_3_A,1,test,P,97,2,820,350,P,1,<rshift>,1,1,183329,351
Control_TS_3_A,1,test,P,98,4,820,550,R,0,NONE,0,1,184330,950
Control_TS_3_A,1,test,P,99,2,820,350,P,1,<rshift>,1,1,185329,427
Control_TS_3_A,1,test,P,100,3,620,550,P,1,<rshift>,1,1,186328,482
Control_TS_3_A,1,test,P,101,2,820,350,P,1,<rshift>,1,1,187330,384
Control_TS_3_A,1,test,P,102,2,820,350,P,1,<rshift>,1,1,188330,321
Control_TS_3_A,1,test,P,103,2,820,350,P,1,<rshift>,1,1,189328,527
Control_TS_3_A,1,test,P,104,4,820,550,P,1,<rshift>,1,1,190328,379
Control_TS_3_A,1,test,P,105,4,820,550,P,1,<rshift>,1,1,191328,374
Control_TS_3_A,1,test,P,106,1,620,350,P,1,<rshift>,1,1,192328,459
Control_TS_3_A,1,test,P,107,2,820,350,P,1,<rshift>,1,1,193328,373
Control_TS_3_A,1,test,P,108,1,620,350,P,1,<rshift>,1,1,194330,349
Control_TS_3_A,1,test,P,109,1,620,350,P,1,<rshift>,1,1,195330,344
Control_TS_3_A,1,test,P,110,3,620,550,P,1,<rshift>,1,1,196328,367
Control_TS_3_A,1,test,P,111,2,820,350,P,1,<rshift>,1,1,197328,384
Control_TS_3_A,1,test,P,112,3,620,550,P,1,<rshift>,1,1,198328,339
Control_TS_3_A,1,test,P,113,2,820,350,P,1,<rshift>,1,1,199328,314
Control_TS_3_A,1,test,P,114,4,820,550,P,1,<rshift>,1,1,200328,421
Control_TS_3_A,1,test,P,115,3,620,550,R,0,<rshift>,1,0,201328,348
Control_TS_3_A,1,test,P,116,1,620,350,P,1,<rshift>,1,1,202330,434
Control_TS_3_A,1,test,P,117,1,620,350,P,1,<rshift>,1,1,203330,376
Control_TS_3_A,1,test,P,118,2,820,350,P,1,<rshift>,1,1,204328,397
Control_TS_3_A,1,test,P,119,1,620,350,P,1,<rshift>,1,1,205330,350
Control_TS_3_A,1,test,P,120,2,820,350,R,0,NONE,0,1,206330,950
Control_TS_3_A,1,test,P,121,4,820,550,P,1,<rshift>,1,1,207329,380
Control_TS_3_A,1,test,P,122,1,620,350,P,1,<rshift>,1,1,208328,373
Control_TS_3_A,1,test,P,123,3,620,550,P,1,<rshift>,1,1,209330,387
Control_TS_3_A,1,test,P,124,4,820,550,P,1,<rshift>,1,1,210328,380
Control_TS_3_A,1,test,P,125,4,820,550,P,1,<rshift>,1,1,211328,431
Control_TS_3_A,1,test,P,126,3,620,550,R,0,NONE,0,1,212328,950
Control_TS_3_A,1,test,P,127,1,620,350,R,0,<rshift>,1,0,213330,523
Control_TS_3_A,1,test,P,128,4,820,550,P,1,<rshift>,1,1,214328,430
Control_TS_3_A,1,test,P,129,4,820,550,P,1,<rshift>,1,1,215330,419
Control_TS_3_A,1,test,P,130,3,620,550,P,1,<rshift>,1,1,216328,424
Control_TS_3_A,1,test,P,131,2,820,350,P,1,<rshift>,1,1,217328,403
Control_TS_3_A,1,test,P,132,4,820,550,P,1,<rshift>,1,1,218330,358
Control_TS_3_A,1,test,P,133,4,820,550,P,1,<rshift>,1,1,219328,357
Control_TS_3_A,1,test,P,134,3,620,550,P,1,<rshift>,1,1,220328,507
Control_TS_3_A,1,test,P,135,1,620,350,P,1,<rshift>,1,1,221330,363
Control_TS_3_A,1,test,P,136,4,820,550,R,0,NONE,0,1,222330,950
Control_TS_3_A,1,test,P,137,3,620,550,P,1,<rshift>,1,1,223328,488
Control_TS_3_A,1,test,P,138,3,620,550,P,1,<rshift>,1,1,224330,409
Control_TS_3_A,1,test,P,139,3,620,550,R,0,NONE,0,1,225330,950
Control_TS_3_A,1,test,P,140,1,620,350,P,1,<rshift>,1,1,226328,384
Control_TS_3_A,1,test,P,141,1,620,350,P,1,<rshift>,1,1,227330,427
Control_TS_3_A,1,test,P,142,2,820,350,P,1,<rshift>,1,1,228328,415
Control_TS_3_A,1,test,P,143,1,620,350,R,0,<rshift>,1,0,229330,386
Control_TS_3_A,1,test,P,144,4,820,550,P,1,<rshift>,1,1,230329,457
Control_TS_3_A,1,test,P,145,2,820,350,P,1,<rshift>,1,1,231329,403
Control_TS_3_A,1,test,P,146,1,620,350,P,1,<rshift>,1,1,232328,427
Control_TS_3_A,1,test,P,147,1,620,350,R,0,NONE,0,1,233328,950
Control_TS_3_A,1,test,P,148,4,820,550,P,1,<rshift>,1,1,234330,528
Control_TS_3_A,1,test,P,149,1,620,350,P,1,<rshift>,1,1,235330,431
Control_TS_3_A,1,test,P,150,2,820,350,P,1,<rshift>,1,1,236328,422
Control_TS_3_A,1,test,P,151,1,620,350,R,0,NONE,0,1,237330,950
Control_TS_3_A,1,test,P,152,3,620,550,P,1,<rshift>,1,1,238329,431
Control_TS_3_A,1,test,P,153,2,820,350,P,1,<rshift>,1,1,239330,441
Control_TS_3_A,1,test,P,154,2,820,350,P,1,<rshift>,1,1,240330,396
Control_TS_3_A,1,test,P,155,3,620,550,P,1,<rshift>,1,1,241328,489
Control_TS_3_A,1,test,P,156,4,820,550,P,1,<rshift>,1,1,242328,413
Control_TS_3_A,1,test,P,157,4,820,550,R,0,NONE,0,1,243330,950
Control_TS_3_A,1,test,P,158,4,820,550,P,1,<rshift>,1,1,244328,429
Control_TS_3_A,1,test,P,159,2,820,350,P,1,<rshift>,1,1,245330,387
Control_TS_3_A,1,test,P,160,2,820,350,P,1,<rshift>,1,1,246330,399
Control_TS_3_A,1,test,P,161,4,820,550,R,0,NONE,0,1,247328,951
Control_TS_3_A,1,test,P,162,4,820,550,P,1,<rshift>,1,1,248328,452
Control_TS_3_A,1,test,P,163,2,820,350,P,1,<rshift>,1,1,249328,440
Control_TS_3_A,1,test,P,164,3,620,550,P,1,<rshift>,1,1,250329,442
Control_TS_3_A,1,test,P,165,1,620,350,P,1,<rshift>,1,1,251330,367
Control_TS_3_A,1,test,P,166,4,820,550,R,0,NONE,0,1,252328,950
Control_TS_3_A,1,test,P,167,3,620,550,P,1,<rshift>,1,1,253328,414
Control_TS_3_A,1,test,P,168,2,820,350,R,0,NONE,0,1,254328,950
Control_TS_3_A,1,test,P,169,4,820,550,P,1,<rshift>,1,1,255330,360
Control_TS_3_A,1,test,P,170,3,620,550,P,1,<rshift>,1,1,256328,486
Control_TS_3_A,1,test,P,171,2,820,350,P,1,<rshift>,1,1,257330,428
Control_TS_3_A,1,test,P,172,4,820,550,P,1,<rshift>,1,1,258328,393
Control_TS_3_A,1,test,P,173,4,820,550,P,1,<rshift>,1,1,259328,371
Control_TS_3_A,1,test,P,174,4,820,550,P,1,<rshift>,1,1,260330,357
Control_TS_3_A,1,test,P,175,4,820,550,P,1,<rshift>,1,1,261328,449
Control_TS_3_A,1,test,P,176,2,820,350,P,1,<rshift>,1,1,262330,457
Control_TS_3_A,1,test,P,177,4,820,550,P,1,<rshift>,1,1,263328,419
Control_TS_3_A,1,test,P,178,3,620,550,P,1,<rshift>,1,1,264330,430
Control_TS_3_A,1,test,P,179,2,820,350,P,1,<rshift>,1,1,265328,415
Control_TS_3_A,1,test,P,180,1,620,350,P,1,<rshift>,1,1,266328,463
Control_TS_3_A,1,test,P,181,3,620,550,P,1,<rshift>,1,1,267329,494
Control_TS_3_A,1,test,P,182,3,620,550,P,1,<rshift>,1,1,268330,449
Control_TS_3_A,1,test,P,183,2,820,350,P,1,<rshift>,1,1,269328,441
Control_TS_3_A,1,test,P,184,4,820,550,P,1,<rshift>,1,1,270329,428
Control_TS_3_A,1,test,P,185,3,620,550,P,1,<rshift>,1,1,271328,402
Control_TS_3_A,1,test,P,186,2,820,350,P,1,<rshift>,1,1,272330,402
Control_TS_3_A,1,test,P,187,3,620,550,P,1,<rshift>,1,1,273328,444
Control_TS_3_A,1,test,P,188,1,620,350,P,1,<rshift>,1,1,274330,388
Control_TS_3_A,1,test,P,189,4,820,550,P,1,<rshift>,1,1,275329,418
Control_TS_3_A,1,test,P,190,2,820,350,P,1,<rshift>,1,1,276328,428
Control_TS_3_A,1,test,P,191,4,820,550,P,1,<rshift>,1,1,277329,399
Control_TS_3_A,1,test,P,192,4,820,550,P,1,<rshift>,1,1,278330,425
Control_TS_3_A,1,test,P,193,2,820,350,P,1,<rshift>,1,1,279330,464
Control_TS_3_A,1,test,P,194,1,620,350,P,1,<rshift>,1,1,280328,404
Control_TS_3_A,1,test,P,195,2,820,350,P,1,<rshift>,1,1,281328,426
Control_TS_3_A,1,test,P,196,1,620,350,R,0,NONE,0,1,282330,950
Control_TS_3_A,1,test,P,197,1,620,350,P,1,<rshift>,1,1,283328,460
Control_TS_3_A,1,test,P,198,4,820,550,P,1,<rshift>,1,1,284331,434
Control_TS_3_A,1,test,P,199,2,820,350,P,1,<rshift>,1,1,285330,434
Control_TS_3_A,1,test,P,200,4,820,550,P,1,<rshift>,1,1,286330,526
Control_TS_3_A,1,test,P,201,4,820,550,P,1,<rshift>,1,1,287330,396
Control_TS_3_A,1,test,P,202,3,620,550,R,0,NONE,0,1,288329,950
Control_TS_3_A,1,test,P,203,4,820,550,P,1,<rshift>,1,1,289329,326
Control_TS_3_A,1,test,P,204,4,820,550,P,1,<rshift>,1,1,290330,368
Control_TS_3_A,1,test,P,205,3,620,550,R,0,<rshift>,1,0,291328,397
Control_TS_3_A,1,test,P,206,1,620,350,R,0,<rshift>,1,0,292328,420
Control_TS_3_A,1,test,P,207,4,820,550,P,1,<rshift>,1,1,293328,414
Control_TS_3_A,1,test,P,208,2,820,350,P,1,<rshift>,1,1,294328,434
Control_TS_3_A,1,test,P,209,2,820,350,P,1,<rshift>,1,1,295330,388
Control_TS_3_A,1,test,P,210,4,820,550,P,1,<rshift>,1,1,296330,369
Control_TS_3_A,1,test,P,211,2,820,350,R,0,NONE,0,1,297328,950
Control_TS_3_A,1,test,P,212,3,620,550,P,1,<rshift>,1,1,298328,348
Control_TS_3_A,1,test,P,213,1,620,350,P,1,<rshift>,1,1,299330,385
Control_TS_3_A,1,test,P,214,1,620,350,R,0,NONE,0,1,300330,950
Control_TS_3_A,1,test,P,215,4,820,550,P,1,<rshift>,1,1,301330,457
Control_TS_3_A,1,test,P,216,2,820,350,P,1,<rshift>,1,1,302328,476
Control_TS_3_A,1,test,P,217,4,820,550,P,1,<rshift>,1,1,303329,478
Control_TS_3_A,1,test,P,218,1,620,350,P,1,<rshift>,1,1,304330,850
Control_TS_3_A,1,test,P,219,4,820,550,P,1,<rshift>,1,1,305328,376
Control_TS_3_A,1,test,P,220,4,820,550,P,1,<rshift>,1,1,306328,345
Control_TS_3_A,1,test,P,221,2,820,350,P,1,<rshift>,1,1,307328,427
Control_TS_3_A,1,test,P,222,4,820,550,P,1,<rshift>,1,1,308328,471
Control_TS_3_A,1,test,P,223,1,620,350,P,1,<rshift>,1,1,309329,416
Control_TS_3_A,1,test,P,224,3,620,550,P,1,<rshift>,1,1,310329,426
Control_TS_3_A,1,test,P,225,2,820,350,P,1,<rshift>,1,1,311330,378
Control_TS_3_A,1,test,P,226,2,820,350,P,1,<rshift>,1,1,312330,347
Control_TS_3_A,1,test,P,227,1,620,350,R,0,<rshift>,1,0,313330,391
Control_TS_3_A,1,test,P,228,4,820,550,P,1,<rshift>,1,1,314328,339
Control_TS_3_A,1,test,P,229,3,620,550,P,1,<rshift>,1,1,315330,446
Control_TS_3_A,1,test,P,230,1,620,350,R,0,NONE,0,1,316328,950
Control_TS_3_A,1,test,P,231,2,820,350,P,1,<rshift>,1,1,317328,372
Control_TS_3_A,1,test,P,232,4,820,550,P,1,<rshift>,1,1,318330,367
Control_TS_3_A,1,test,P,233,4,820,550,P,1,<rshift>,1,1,319328,493
Control_TS_3_A,1,test,P,234,4,820,550,P,1,<rshift>,1,1,320328,347
Control_TS_3_A,1,test,P,235,1,620,350,P,1,<rshift>,1,1,321328,390
Control_TS_3_A,1,test,P,236,3,620,550,P,1,<rshift>,1,1,322328,383
Control_TS_3_A,1,test,P,237,1,620,350,R,0,NONE,0,1,323328,950
Control_TS_3_A,1,test,P,238,4,820,550,P,1,<rshift>,1,1,324328,391
Control_TS_3_A,1,test,P,239,3,620,550,R,0,NONE,0,1,325328,950
Control_TS_3_A,1,test,P,240,4,820,550,P,1,<rshift>,1,1,326328,378
Control_TS_3_A,1,test,P,241,3,620,550,P,1,<rshift>,1,1,327330,431
Control_TS_3_A,1,test,P,242,4,820,550,P,1,<rshift>,1,1,328330,447
Control_TS_3_A,1,test,P,243,1,620,350,P,1,<rshift>,1,1,329330,457
Control_TS_3_A,1,test,P,244,1,620,350,P,1,<rshift>,1,1,330330,406
Control_TS_3_A,1,test,P,245,2,820,350,P,1,<rshift>,1,1,331328,458
Control_TS_3_A,1,test,P,246,4,820,550,P,1,<rshift>,1,1,332328,637
Control_TS_3_A,1,test,P,247,4,820,550,P,1,<rshift>,1,1,333328,430
Control_TS_3_A,1,test,P,248,1,620,350,P,1,<rshift>,1,1,334330,435
Control_TS_3_A,1,test,P,249,4,820,550,P,1,<rshift>,1,1,335328,487
Control_TS_3_A,1,test,P,250,4,820,550,P,1,<rshift>,1,1,336330,544
Control_TS_3_A,1,test,P,251,2,820,350,R,0,NONE,0,1,337328,950
Control_TS_3_A,1,test,P,252,4,820,550,P,1,<rshift>,1,1,338328,429
Control_TS_3_A,1,test,P,253,3,620,550,P,1,<rshift>,1,1,339328,467
Control_TS_3_A,1,test,P,254,3,620,550,R,0,NONE,0,1,340328,950
Control_TS_3_A,1,test,P,255,2,820,350,P,1,<rshift>,1,1,341328,407
Control_TS_3_A,1,test,P,256,1,620,350,P,1,<rshift>,1,1,342328,412
Control_TS_3_A,1,test,P,257,3,620,550,P,1,<rshift>,1,1,343329,422
Control_TS_3_A,1,test,P,258,1,620,350,P,1,<rshift>,1,1,344330,390
Control_TS_3_A,1,test,P,259,2,820,350,P,1,<rshift>,1,1,345330,490
Control_TS_3_A,1,test,P,260,3,620,550,R,0,NONE,0,1,346328,950
Control_TS_3_A,1,test,P,261,4,820,550,R,0,NONE,0,1,347328,950
Control_TS_3_A,1,test,P,262,4,820,550,P,1,<rshift>,1,1,348328,397
Control_TS_3_A,1,test,P,263,1,620,350,P,1,<rshift>,1,1,349328,395
Control_TS_3_A,1,test,P,264,2,820,350,P,1,<rshift>,1,1,350330,370
Control_TS_3_A,1,test,P,265,2,820,350,R,0,NONE,0,1,351328,950
Control_TS_3_A,1,test,P,266,4,820,550,P,1,<rshift>,1,1,352328,340
Control_TS_3_A,1,test,P,267,1,620,350,P,1,<rshift>,1,1,353328,369
Control_TS_3_A,1,test,P,268,2,820,350,R,0,<rshift>,1,0,354328,337
Control_TS_3_A,1,test,P,269,3,620,550,P,1,<rshift>,1,1,355328,425
Control_TS_3_A,1,test,P,270,1,620,350,P,1,<rshift>,1,1,356328,407
Control_TS_3_A,1,test,P,271,1,620,350,P,1,<rshift>,1,1,357328,431
Control_TS_3_A,1,test,P,272,4,820,550,P,1,<rshift>,1,1,358328,328
Control_TS_3_A,1,test,P,273,4,820,550,P,1,<rshift>,1,1,359328,344
Control_TS_3_A,1,test,P,274,3,620,550,P,1,<rshift>,1,1,360330,369
Control_TS_3_A,1,test,P,275,2,820,350,P,1,<rshift>,1,1,361329,366
Control_TS_3_A,1,test,P,276,1,620,350,P,1,<rshift>,1,1,362328,373
Control_TS_3_A,1,test,P,277,2,820,350,P,1,<rshift>,1,1,363330,360
Control_TS_3_A,1,test,P,278,2,820,350,P,1,<rshift>,1,1,364328,331
Control_TS_3_A,1,test,P,279,1,620,350,R,0,NONE,0,1,365328,950
Control_TS_3_A,1,test,P,280,4,820,550,P,1,<rshift>,1,1,366328,317
Control_TS_3_A,1,test,P,281,2,820,350,P,1,<rshift>,1,1,367329,399
Control_TS_3_A,1,test,P,282,3,620,550,P,1,<rshift>,1,1,368330,402
Control_TS_3_A,1,test,P,283,2,820,350,P,1,<rshift>,1,1,369330,442
Control_TS_3_A,1,test,P,284,1,620,350,P,1,<rshift>,1,1,370328,430
Control_TS_3_A,1,test,P,285,4,820,550,R,0,<rshift>,1,0,371330,393
Control_TS_3_A,1,test,P,286,4,820,550,R,0,NONE,0,1,372328,950
Control_TS_3_A,1,test,P,287,1,620,350,R,0,<rshift>,1,0,373328,430
Control_TS_3_A,1,test,P,288,3,620,550,P,1,<rshift>,1,1,374330,445
Control_TS_3_A,1,test,P,289,4,820,550,P,1,<rshift>,1,1,375330,523
Control_TS_3_A,1,test,P,290,4,820,550,R,0,NONE,0,1,376328,950
Control_TS_3_A,1,test,P,291,1,620,350,P,1,<rshift>,1,1,377328,444
Control_TS_3_A,1,test,P,292,3,620,550,P,1,<rshift>,1,1,378330,447
Control_TS_3_A,1,test,P,293,4,820,550,P,1,<rshift>,1,1,379328,438
Control_TS_3_A,1,test,P,294,4,820,550,P,1,<rshift>,1,1,380330,402
Control_TS_3_A,1,test,P,295,3,620,550,P,1,<rshift>,1,1,381328,421
Control_TS_3_A,1,test,P,296,4,820,550,R,0,NONE,0,1,382330,950
Control_TS_3_A,1,test,P,297,3,620,550,P,1,<rshift>,1,1,383329,437
Control_TS_3_A,1,test,P,298,1,620,350,P,1,<rshift>,1,1,384330,396
Control_TS_3_A,1,test,P,299,4,820,550,P,1,<rshift>,1,1,385330,578
Control_TS_3_A,1,test,P,300,2,820,350,P,1,<rshift>,1,1,386330,416
Control_TS_3_A,2,practice,R,1,3,620,550,R,1,<rshift>,1,1,402610,529
Control_TS_3_A,2,practice,R,2,3,620,550,P,0,NONE,0,1,403611,950
Control_TS_3_A,2,practice,R,3,2,820,350,R,1,<rshift>,1,1,404609,430
Control_TS_3_A,2,practice,R,4,3,620,550,P,0,NONE,0,1,405610,950
Control_TS_3_A,2,practice,R,5,1,620,350,R,1,<rshift>,1,1,406609,376
Control_TS_3_A,2,practice,R,6,1,620,350,R,1,<rshift>,1,1,407609,422
Control_TS_3_A,2,practice,R,7,4,820,550,R,1,<rshift>,1,1,408610,411
Control_TS_3_A,2,practice,R,8,1,620,350,R,1,<rshift>,1,1,409609,357
Control_TS_3_A,2,practice,R,9,1,620,350,R,1,<rshift>,1,1,410609,368
Control_TS_3_A,2,practice,R,10,1,620,350,R,1,<rshift>,1,1,411611,378
Control_TS_3_A,3,test,R,1,1,620,350,R,1,<rshift>,1,1,419895,537
Control_TS_3_A,3,test,R,2,2,820,350,R,1,<rshift>,1,1,420894,413
Control_TS_3_A,3,test,R,3,4,820,550,P,0,NONE,0,1,421895,950
Control_TS_3_A,3,test,R,4,1,620,350,R,1,<rshift>,1,1,422895,392
Control_TS_3_A,3,test,R,5,4,820,550,R,1,<rshift>,1,1,423894,453
Control_TS_3_A,3,test,R,6,2,820,350,R,1,<rshift>,1,1,424894,424
Control_TS_3_A,3,test,R,7,3,620,550,R,1,<rshift>,1,1,425894,395
Control_TS_3_A,3,test,R,8,4,820,550,R,1,<rshift>,1,1,426894,399
Control_TS_3_A,3,test,R,9,1,620,350,R,1,<rshift>,1,1,427896,361
Control_TS_3_A,3,test,R,10,2,820,350,R,1,<rshift>,1,1,428894,348
Control_TS_3_A,3,test,R,11,4,820,550,P,0,<rshift>,1,0,429894,333
Control_TS_3_A,3,test,R,12,4,820,550,P,0,NONE,0,1,430896,950
Control_TS_3_A,3,test,R,13,4,820,550,R,1,<rshift>,1,1,431894,403
Control_TS_3_A,3,test,R,14,3,620,550,R,1,<rshift>,1,1,432896,506
Control_TS_3_A,3,test,R,15,2,820,350,R,1,<rshift>,1,1,433894,409
Control_TS_3_A,3,test,R,16,4,820,550,R,1,<rshift>,1,1,434894,434
Control_TS_3_A,3,test,R,17,3,620,550,R,1,<rshift>,1,1,435894,385
Control_TS_3_A,3,test,R,18,4,820,550,R,1,<rshift>,1,1,436894,385
Control_TS_3_A,3,test,R,19,1,620,350,R,1,<rshift>,1,1,437896,346
Control_TS_3_A,3,test,R,20,3,620,550,R,1,<rshift>,1,1,438894,409
Control_TS_3_A,3,test,R,21,2,820,350,R,1,<rshift>,1,1,439894,354
Control_TS_3_A,3,test,R,22,1,620,350,R,1,<rshift>,1,1,440894,352
Control_TS_3_A,3,test,R,23,4,820,550,R,1,<rshift>,1,1,441894,331
Control_TS_3_A,3,test,R,24,2,820,350,R,1,<rshift>,1,1,442895,334
Control_TS_3_A,3,test,R,25,1,620,350,R,1,<rshift>,1,1,443895,384
Control_TS_3_A,3,test,R,26,2,820,350,R,1,<rshift>,1,1,444896,396
Control_TS_3_A,3,test,R,27,4,820,550,R,1,<rshift>,1,1,445894,419
Control_TS_3_A,3,test,R,28,2,820,350,R,1,<rshift>,1,1,446894,369
Control_TS_3_A,3,test,R,29,1,620,350,R,1,<rshift>,1,1,447896,342
Control_TS_3_A,3,test,R,30,2,820,350,R,1,<rshift>,1,1,448896,272
Control_TS_3_A,3,test,R,31,1,620,350,R,1,<rshift>,1,1,449894,414
Control_TS_3_A,3,test,R,32,2,820,350,R,1,<rshift>,1,1,450894,384
Control_TS_3_A,3,test,R,33,4,820,550,R,1,<rshift>,1,1,451896,420
Control_TS_3_A,3,test,R,34,2,820,350,R,1,<rshift>,1,1,452894,375
Control_TS_3_A,3,test,R,35,1,620,350,R,1,<rshift>,1,1,453896,326
Control_TS_3_A,3,test,R,36,3,620,550,R,1,<rshift>,1,1,454894,388
Control_TS_3_A,3,test,R,37,3,620,550,R,1,<rshift>,1,1,455894,396
Control_TS_3_A,3,test,R,38,3,620,550,R,1,<rshift>,1,1,456896,388
Control_TS_3_A,3,test,R,39,4,820,550,R,1,<rshift>,1,1,457894,450
Control_TS_3_A,3,test,R,40,2,820,350,R,1,<rshift>,1,1,458894,317
Control_TS_3_A,3,test,R,41,4,820,550,R,1,<rshift>,1,1,459895,276
Control_TS_3_A,3,test,R,42,4,820,550,R,1,<rshift>,1,1,460894,258
Control_TS_3_A,3,test,R,43,2,820,350,P,0,<rshift>,1,0,461896,371
Control_TS_3_A,3,test,R,44,3,620,550,R,1,<rshift>,1,1,462896,347
Control_TS_3_A,3,test,R,45,1,620,350,R,1,<rshift>,1,1,463896,393
Control_TS_3_A,3,test,R,46,3,620,550,R,1,<rshift>,1,1,464894,427
Control_TS_3_A,3,test,R,47,4,820,550,R,1,<rshift>,1,1,465894,390
Control_TS_3_A,3,test,R,48,1,620,350,P,0,NONE,0,1,466895,950
Control_TS_3_A,3,test,R,49,4,820,550,R,1,<rshift>,1,1,467894,364
Control_TS_3_A,3,test,R,50,4,820,550,P,0,NONE,0,1,468896,950
Control_TS_3_A,3,test,R,51,3,620,550,R,1,<rshift>,1,1,469894,511
Control_TS_3_A,3,test,R,52,2,820,350,R,1,<rshift>,1,1,470894,456
Control_TS_3_A,3,test,R,53,4,820,550,R,1,<rshift>,1,1,471894,387
Control_TS_3_A,3,test,R,54,2,820,350,R,1,<rshift>,1,1,472894,342
Control_TS_3_A,3,test,R,55,3,620,550,R,1,<rshift>,1,1,473894,305
Control_TS_3_A,3,test,R,56,2,820,350,R,1,<rshift>,1,1,474896,279
Control_TS_3_A,3,test,R,57,2,820,350,P,0,NONE,0,1,475894,950
Control_TS_3_A,3,test,R,58,3,620,550,R,1,<rshift>,1,1,476896,282
Control_TS_3_A,3,test,R,59,1,620,350,R,1,<rshift>,1,1,477894,287
Control_TS_3_A,3,test,R,60,2,820,350,R,1,<rshift>,1,1,478895,402
Control_TS_3_A,3,test,R,61,4,820,550,R,1,<rshift>,1,1,479895,351
Control_TS_3_A,3,test,R,62,1,620,350,R,1,<rshift>,1,1,480894,315
Control_TS_3_A,3,test,R,63,1,620,350,R,1,<rshift>,1,1,481894,351
Control_TS_3_A,3,test,R,64,1,620,350,R,1,<rshift>,1,1,482895,356
Control_TS_3_A,3,test,R,65,3,620,550,R,1,<rshift>,1,1,483895,390
Control_TS_3_A,3,test,R,66,1,620,350,R,1,<rshift>,1,1,484894,416
Control_TS_3_A,3,test,R,67,4,820,550,R,1,<rshift>,1,1,485894,344
Control_TS_3_A,3,test,R,68,4,820,550,R,1,<rshift>,1,1,486895,379
Control_TS_3_A,3,test,R,69,4,820,550,R,1,<rshift>,1,1,487894,399
Control_TS_3_A,3,test,R,70,1,620,350,P,0,<rshift>,1,0,488894,349
Control_TS_3_A,3,test,R,71,4,820,550,R,1,<rshift>,1,1,489895,401
Control_TS_3_A,3,test,R,72,2,820,350,R,1,<rshift>,1,1,490896,384
Control_TS_3_A,3,test,R,73,3,620,550,R,1,<rshift>,1,1,491896,382
Control_TS_3_A,3,test,R,74,3,620,550,P,0,NONE,0,1,492894,950
Control_TS_3_A,3,test,R,75,2,820,350,R,1,<rshift>,1,1,493894,371
Control_TS_3_A,3,test,R,76,3,620,550,R,1,<rshift>,1,1,494895,387
Control_TS_3_A,3,test,R,77,2,820,350,R,1,<rshift>,1,1,495895,431
Control_TS_3_A,3,test,R,78,3,620,550,R,1,<rshift>,1,1,496894,412
Control_TS_3_A,3,test,R,79,3,620,550,P,0,NONE,0,1,497894,950
Control_TS_3_A,3,test,R,80,3,620,550,R,1,<rshift>,1,1,498894,343
Control_TS_3_A,3,test,R,81,4,820,550,R,1,<rshift>,1,1,499894,384
Control_TS_3_A,3,test,R,82,2,820,350,R,1,<rshift>,1,1,500896,362
Control_TS_3_A,3,test,R,83,1,620,350,R,1,<rshift>,1,1,501894,365
Control_TS_3_A,3,test,R,84,3,620,550,R,1,<rshift>,1,1,502894,382
Control_TS_3_A,3,test,R,85,4,820,550,R,1,<rshift>,1,1,503896,418
Control_TS_3_A,3,test,R,86,3,620,550,R,1,<rshift>,1,1,504894,416
Control_TS_3_A,3,test,R,87,1,620,350,P,0,NONE,0,1,505895,950
Control_TS_3_A,3,test,R,88,4,820,550,P,0,NONE,0,1,506894,950
Control_TS_3_A,3,test,R,89,4,820,550,R,1,<rshift>,1,1,507894,495
Control_TS_3_A,3,test,R,90,3,620,550,R,1,<rshift>,1,1,508894,399
Control_TS_3_A,3,test,R,91,3,620,550,R,1,<rshift>,1,1,509894,434
Control_TS_3_A,3,test,R,92,1,620,350,R,1,<rshift>,1,1,510894,722
Control_TS_3_A,3,test,R,93,4,820,550,P,0,NONE,0,1,511894,950
Control_TS_3_A,3,test,R,94,3,620,550,P,0,NONE,0,1,512896,950
Control_TS_3_A,3,test,R,95,4,820,550,R,1,<rshift>,1,1,513894,434
Control_TS_3_A,3,test,R,96,3,620,550,P,0,NONE,0,1,514895,950
Control_TS_3_A,3,test,R,97,2,820,350,R,1,<rshift>,1,1,515894,399
Control_TS_3_A,3,test,R,98,1,620,350,R,1,<rshift>,1,1,516894,354
Control_TS_3_A,3,test,R,99,3,620,550,R,1,<rshift>,1,1,517895,316
Control_TS_3_A,3,test,R,100,4,820,550,R,1,<rshift>,1,1,518894,327
Control_TS_3_A,3,test,R,101,1,620,350,P,0,NONE,0,1,519895,950
Control_TS_3_A,3,test,R,102,1,620,350,R,1,<rshift>,1,1,520894,438
Control_TS_3_A,3,test,R,103,4,820,550,P,0,<rshift>,1,0,521894,378
Control_TS_3_A,3,test,R,104,2,820,350,P,0,NONE,0,1,522894,950
Control_TS_3_A,3,test,R,105,1,620,350,R,1,<rshift>,1,1,523894,447
Control_TS_3_A,3,test,R,106,3,620,550,R,1,<rshift>,1,1,524894,372
Control_TS_3_A,3,test,R,107,1,620,350,R,1,<rshift>,1,1,525894,413
Control_TS_3_A,3,test,R,108,2,820,350,P,0,NONE,0,1,526894,950
Control_TS_3_A,3,test,R,109,1,620,350,R,1,<rshift>,1,1,527894,438
Control_TS_3_A,3,test,R,110,2,820,350,R,1,<rshift>,1,1,528895,596
Control_TS_3_A,3,test,R,111,4,820,550,R,1,<rshift>,1,1,529894,420
Control_TS_3_A,3,test,R,112,4,820,550,R,1,<rshift>,1,1,530894,350
Control_TS_3_A,3,test,R,113,1,620,350,P,0,<rshift>,1,0,531894,349
Control_TS_3_A,3,test,R,114,4,820,550,R,1,<rshift>,1,1,532896,322
Control_TS_3_A,3,test,R,115,3,620,550,R,1,<rshift>,1,1,533895,344
Control_TS_3_A,3,test,R,116,1,620,350,R,1,<rshift>,1,1,534895,467
Control_TS_3_A,3,test,R,117,4,820,550,R,1,<rshift>,1,1,535894,338
Control_TS_3_A,3,test,R,118,3,620,550,R,1,<rshift>,1,1,536894,372
Control_TS_3_A,3,test,R,119,1,620,350,R,1,<rshift>,1,1,537894,340
Control_TS_3_A,3,test,R,120,4,820,550,P,0,<rshift>,1,0,538894,366
Control_TS_3_A,3,test,R,121,1,620,350,R,1,<rshift>,1,1,539895,329
Control_TS_3_A,3,test,R,122,2,820,350,R,1,<rshift>,1,1,540895,369
Control_TS_3_A,3,test,R,123,4,820,550,R,1,<rshift>,1,1,541894,404
Control_TS_3_A,3,test,R,124,3,620,550,R,1,<rshift>,1,1,542896,351
Control_TS_3_A,3,test,R,125,2,820,350,R,1,<rshift>,1,1,543896,366
Control_TS_3_A,3,test,R,126,3,620,550,R,1,<rshift>,1,1,544895,367
Control_TS_3_A,3,test,R,127,2,820,350,R,1,<rshift>,1,1,545896,366
Control_TS_3_A,3,test,R,128,1,620,350,R,1,<rshift>,1,1,546896,457
Control_TS_3_A,3,test,R,129,1,620,350,R,1,<rshift>,1,1,547895,403
Control_TS_3_A,3,test,R,130,2,820,350,R,1,<rshift>,1,1,548896,384
Control_TS_3_A,3,test,R,131,2,820,350,R,1,<rshift>,1,1,549894,420
Control_TS_3_A,3,test,R,132,2,820,350,R,1,<rshift>,1,1,550896,416
Control_TS_3_A,3,test,R,133,2,820,350,R,1,<rshift>,1,1,551896,377
Control_TS_3_A,3,test,R,134,1,620,350,R,1,<rshift>,1,1,552894,518
Control_TS_3_A,3,test,R,135,1,620,350,R,1,<rshift>,1,1,553894,481
Control_TS_3_A,3,test,R,136,1,620,350,R,1,<rshift>,1,1,554894,433
Control_TS_3_A,3,test,R,137,2,820,350,R,1,<rshift>,1,1,555895,462
Control_TS_3_A,3,test,R,138,1,620,350,P,0,NONE,0,1,556894,950
Control_TS_3_A,3,test,R,139,3,620,550,R,1,<rshift>,1,1,557895,425
Control_TS_3_A,3,test,R,140,2,820,350,R,1,<rshift>,1,1,558894,432
Control_TS_3_A,3,test,R,141,3,620,550,P,0,NONE,0,1,559894,950
Control_TS_3_A,3,test,R,142,3,620,550,R,1,<rshift>,1,1,560894,404
Control_TS_3_A,3,test,R,143,2,820,350,R,1,<rshift>,1,1,561896,468
Control_TS_3_A,3,test,R,144,3,620,550,R,1,<rshift>,1,1,562894,403
Control_TS_3_A,3,test,R,145,3,620,550,R,1,<rshift>,1,1,563894,376
Control_TS_3_A,3,test,R,146,4,820,550,R,1,<rshift>,1,1,564896,336
Control_TS_3_A,3,test,R,147,1,620,350,R,1,<rshift>,1,1,565894,336
Control_TS_3_A,3,test,R,148,2,820,350,P,0,<rshift>,1,0,566894,315
Control_TS_3_A,3,test,R,149,1,620,350,P,0,<rshift>,1,0,567894,343
Control_TS_3_A,3,test,R,150,2,820,350,R,1,<rshift>,1,1,568894,414
Control_TS_3_A,3,test,R,151,4,820,550,R,1,<rshift>,1,1,569894,474
Control_TS_3_A,3,test,R,152,1,620,350,R,1,<rshift>,1,1,570896,504
Control_TS_3_A,3,test,R,153,1,620,350,R,1,<rshift>,1,1,571896,460
Control_TS_3_A,3,test,R,154,4,820,550,R,1,<rshift>,1,1,572894,453
Control_TS_3_A,3,test,R,155,3,620,550,R,1,<rshift>,1,1,573895,454
Control_TS_3_A,3,test,R,156,1,620,350,R,1,<rshift>,1,1,574896,537
Control_TS_3_A,3,test,R,157,1,620,350,P,0,NONE,0,1,575894,950
Control_TS_3_A,3,test,R,158,4,820,550,R,1,<rshift>,1,1,576894,360
Control_TS_3_A,3,test,R,159,3,620,550,R,1,<rshift>,1,1,577895,482
Control_TS_3_A,3,test,R,160,1,620,350,P,0,NONE,0,1,578895,950
Control_TS_3_A,3,test,R,161,2,820,350,R,1,<rshift>,1,1,579895,473
Control_TS_3_A,3,test,R,162,1,620,350,P,0,NONE,0,1,580894,950
Control_TS_3_A,3,test,R,163,1,620,350,P,0,NONE,0,1,581894,950
Control_TS_3_A,3,test,R,164,1,620,350,R,1,<rshift>,1,1,582894,470
Control_TS_3_A,3,test,R,165,1,620,350,R,1,<rshift>,1,1,583896,378
Control_TS_3_A,3,test,R,166,3,620,550,P,0,NONE,0,1,584894,950
Control_TS_3_A,3,test,R,167,3,620,550,R,1,<rshift>,1,1,585894,407
Control_TS_3_A,3,test,R,168,2,820,350,P,0,<rshift>,1,0,586895,361
Control_TS_3_A,3,test,R,169,4,820,550,R,1,<rshift>,1,1,587895,321
Control_TS_3_A,3,test,R,170,2,820,350,P,0,NONE,0,1,588894,950
Control_TS_3_A,3,test,R,171,4,820,550,R,1,<rshift>,1,1,589894,335
Control_TS_3_A,3,test,R,172,2,820,350,R,1,<rshift>,1,1,590894,535
Control_TS_3_A,3,test,R,173,4,820,550,R,1,<rshift>,1,1,591895,411
Control_TS_3_A,3,test,R,174,4,820,550,R,1,<rshift>,1,1,592894,418
Control_TS_3_A,3,test,R,175,3,620,550,P,0,NONE,0,1,593896,950
Control_TS_3_A,3,test,R,176,2,820,350,P,0,<rshift>,1,0,594895,330
Control_TS_3_A,3,test,R,177,3,620,550,R,1,<rshift>,1,1,595894,432
Control_TS_3_A,3,test,R,178,3,620,550,P,0,NONE,0,1,596896,950
Control_TS_3_A,3,test,R,179,3,620,550,R,1,<rshift>,1,1,597894,487
Control_TS_3_A,3,test,R,180,4,820,550,R,1,<rshift>,1,1,598896,443
Control_TS_3_A,3,test,R,181,4,820,550,R,1,<rshift>,1,1,599895,395
Control_TS_3_A,3,test,R,182,1,620,350,R,1,<rshift>,1,1,600894,485
Control_TS_3_A,3,test,R,183,4,820,550,R,1,<rshift>,1,1,601894,425
Control_TS_3_A,3,test,R,184,4,820,550,P,0,NONE,0,1,602894,950
Control_TS_3_A,3,test,R,185,4,820,550,P,0,NONE,0,1,603896,950
Control_TS_3_A,3,test,R,186,3,620,550,R,1,<rshift>,1,1,604896,443
Control_TS_3_A,3,test,R,187,2,820,350,R,1,<rshift>,1,1,605894,455
Control_TS_3_A,3,test,R,188,4,820,550,R,1,<rshift>,1,1,606896,415
Control_TS_3_A,3,test,R,189,2,820,350,R,1,<rshift>,1,1,607896,388
Control_TS_3_A,3,test,R,190,2,820,350,R,1,<rshift>,1,1,608896,370
Control_TS_3_A,3,test,R,191,4,820,550,R,1,<rshift>,1,1,609895,444
Control_TS_3_A,3,test,R,192,4,820,550,P,0,NONE,0,1,610896,950
Control_TS_3_A,3,test,R,193,1,620,350,R,1,<rshift>,1,1,611895,528
Control_TS_3_A,3,test,R,194,1,620,350,R,1,<rshift>,1,1,612896,401
Control_TS_3_A,3,test,R,195,4,820,550,R,1,<rshift>,1,1,613894,392
Control_TS_3_A,3,test,R,196,1,620,350,R,1,<rshift>,1,1,614895,377
Control_TS_3_A,3,test,R,197,2,820,350,R,1,<rshift>,1,1,615895,350
Control_TS_3_A,3,test,R,198,3,620,550,R,1,<rshift>,1,1,616895,320
Control_TS_3_A,3,test,R,199,1,620,350,P,0,<rshift>,1,0,617894,318
Control_TS_3_A,3,test,R,200,4,820,550,R,1,<rshift>,1,1,618896,307
Control_TS_3_A,3,test,R,201,3,620,550,P,0,<rshift>,1,0,619895,317
Control_TS_3_A,3,test,R,202,3,620,550,R,1,<rshift>,1,1,620894,506
Control_TS_3_A,3,test,R,203,4,820,550,R,1,<rshift>,1,1,621894,410
Control_TS_3_A,3,test,R,204,4,820,550,R,1,<rshift>,1,1,622896,403
Control_TS_3_A,3,test,R,205,3,620,550,P,0,NONE,0,1,623894,950
Control_TS_3_A,3,test,R,206,4,820,550,P,0,NONE,0,1,624894,950
Control_TS_3_A,3,test,R,207,1,620,350,R,1,<rshift>,1,1,625894,384
Control_TS_3_A,3,test,R,208,4,820,550,R,1,<rshift>,1,1,626894,377
Control_TS_3_A,3,test,R,209,2,820,350,R,1,<rshift>,1,1,627894,459
Control_TS_3_A,3,test,R,210,2,820,350,R,1,<rshift>,1,1,628894,379
Control_TS_3_A,3,test,R,211,1,620,350,R,1,<rshift>,1,1,629895,443
Control_TS_3_A,3,test,R,212,2,820,350,R,1,<rshift>,1,1,630896,374
Control_TS_3_A,3,test,R,213,3,620,550,R,1,<rshift>,1,1,631894,387
Control_TS_3_A,3,test,R,214,2,820,350,R,1,<rshift>,1,1,632894,291
Control_TS_3_A,3,test,R,215,4,820,550,R,1,<rshift>,1,1,633894,358
Control_TS_3_A,3,test,R,216,1,620,350,R,1,<rshift>,1,1,634896,368
Control_TS_3_A,3,test,R,217,2,820,350,P,0,<rshift>,1,0,635894,334
Control_TS_3_A,3,test,R,218,4,820,550,R,1,<rshift>,1,1,636895,268
Control_TS_3_A,3,test,R,219,1,620,350,R,1,<rshift>,1,1,637896,357
Control_TS_3_A,3,test,R,220,1,620,350,R,1,<rshift>,1,1,638894,393
Control_TS_3_A,3,test,R,221,2,820,350,P,0,NONE,0,1,639894,950
Control_TS_3_A,3,test,R,222,1,620,350,P,0,<rshift>,1,0,640895,381
Control_TS_3_A,3,test,R,223,2,820,350,R,1,<rshift>,1,1,641896,346
Control_TS_3_A,3,test,R,224,2,820,350,R,1,<rshift>,1,1,642894,366
Control_TS_3_A,3,test,R,225,3,620,550,R,1,<rshift>,1,1,643896,409
Control_TS_3_A,3,test,R,226,2,820,350,R,1,<rshift>,1,1,644894,398
Control_TS_3_A,3,test,R,227,1,620,350,R,1,<rshift>,1,1,645894,485
Control_TS_3_A,3,test,R,228,3,620,550,P,0,NONE,0,1,646894,950
Control_TS_3_A,3,test,R,229,2,820,350,R,1,<rshift>,1,1,647894,350
Control_TS_3_A,3,test,R,230,2,820,350,R,1,<rshift>,1,1,648894,362
Control_TS_3_A,3,test,R,231,2,820,350,R,1,<rshift>,1,1,649896,376
Control_TS_3_A,3,test,R,232,2,820,350,R,1,<rshift>,1,1,650896,381
Control_TS_3_A,3,test,R,233,4,820,550,R,1,<rshift>,1,1,651896,439
Control_TS_3_A,3,test,R,234,4,820,550,R,1,<rshift>,1,1,652894,400
Control_TS_3_A,3,test,R,235,1,620,350,R,1,<rshift>,1,1,653894,563
Control_TS_3_A,3,test,R,236,3,620,550,R,1,<rshift>,1,1,654895,400
Control_TS_3_A,3,test,R,237,2,820,350,R,1,<rshift>,1,1,655896,355
Control_TS_3_A,3,test,R,238,3,620,550,R,1,<rshift>,1,1,656894,423
Control_TS_3_A,3,test,R,239,4,820,550,R,1,<rshift>,1,1,657896,425
Control_TS_3_A,3,test,R,240,3,620,550,P,0,NONE,0,1,658894,950
Control_TS_3_A,3,test,R,241,3,620,550,R,1,<rshift>,1,1,659894,795
Control_TS_3_A,3,test,R,242,3,620,550,R,1,<rshift>,1,1,660894,366
Control_TS_3_A,3,test,R,243,2,820,350,P,0,<rshift>,1,0,661896,356
Control_TS_3_A,3,test,R,244,1,620,350,R,1,<rshift>,1,1,662894,407
Control_TS_3_A,3,test,R,245,2,820,350,R,1,<rshift>,1,1,663896,470
Control_TS_3_A,3,test,R,246,2,820,350,R,1,<rshift>,1,1,664894,456
Control_TS_3_A,3,test,R,247,4,820,550,P,0,<rshift>,1,0,665894,426
Control_TS_3_A,3,test,R,248,4,820,550,P,0,NONE,0,1,666894,950
Control_TS_3_A,3,test,R,249,4,820,550,R,1,<rshift>,1,1,667895,383
Control_TS_3_A,3,test,R,250,1,620,350,R,1,<rshift>,1,1,668896,453
Control_TS_3_A,3,test,R,251,3,620,550,P,0,NONE,0,1,669896,950
Control_TS_3_A,3,test,R,252,2,820,350,R,1,<rshift>,1,1,670894,368
Control_TS_3_A,3,test,R,253,4,820,550,R,1,<rshift>,1,1,671894,390
Control_TS_3_A,3,test,R,254,1,620,350,R,1,<rshift>,1,1,672894,444
Control_TS_3_A,3,test,R,255,1,620,350,P,0,NONE,0,1,673896,950
Control_TS_3_A,3,test,R,256,1,620,350,R,1,<rshift>,1,1,674894,362
Control_TS_3_A,3,test,R,257,2,820,350,R,1,<rshift>,1,1,675895,372
Control_TS_3_A,3,test,R,258,2,820,350,R,1,<rshift>,1,1,676896,365
Control_TS_3_A,3,test,R,259,2,820,350,R,1,<rshift>,1,1,677894,378
Control_TS_3_A,3,test,R,260,1,620,350,R,1,<rshift>,1,1,678895,414
Control_TS_3_A,3,test,R,261,1,620,350,P,0,NONE,0,1,679895,950
Control_TS_3_A,3,test,R,262,1,620,350,R,1,<rshift>,1,1,680894,314
Control_TS_3_A,3,test,R,263,1,620,350,R,1,<rshift>,1,1,681894,383
Control_TS_3_A,3,test,R,264,4,820,550,R,1,<rshift>,1,1,682894,369
Control_TS_3_A,3,test,R,265,3,620,550,R,1,<rshift>,1,1,683896,359
Control_TS_3_A,3,test,R,266,4,820,550,P,0,<rshift>,1,0,684894,363
Control_TS_3_A,3,test,R,267,3,620,550,R,1,<rshift>,1,1,685894,327
Control_TS_3_A,3,test,R,268,4,820,550,R,1,<rshift>,1,1,686896,387
Control_TS_3_A,3,test,R,269,2,820,350,R,1,<rshift>,1,1,687894,366
Control_TS_3_A,3,test,R,270,3,620,550,R,1,<rshift>,1,1,688894,484
Control_TS_3_A,3,test,R,271,1,620,350,R,1,<rshift>,1,1,689895,422
Control_TS_3_A,3,test,R,272,4,820,550,R,1,<rshift>,1,1,690894,390
Control_TS_3_A,3,test,R,273,4,820,550,R,1,<rshift>,1,1,691894,386
Control_TS_3_A,3,test,R,274,2,820,350,R,1,<rshift>,1,1,692894,424
Control_TS_3_A,3,test,R,275,2,820,350,P,0,NONE,0,1,693896,950
Control_TS_3_A,3,test,R,276,4,820,550,R,1,<rshift>,1,1,694894,473
Control_TS_3_A,3,test,R,277,2,820,350,R,1,<rshift>,1,1,695894,477
Control_TS_3_A,3,test,R,278,3,620,550,R,1,<rshift>,1,1,696894,504
Control_TS_3_A,3,test,R,279,2,820,350,P,0,<rshift>,1,0,697894,374
Control_TS_3_A,3,test,R,280,2,820,350,R,1,<rshift>,1,1,698895,381
Control_TS_3_A,3,test,R,281,2,820,350,R,1,<rshift>,1,1,699895,331
Control_TS_3_A,3,test,R,282,2,820,350,P,0,NONE,0,1,700894,950
Control_TS_3_A,3,test,R,283,4,820,550,R,1,<rshift>,1,1,701894,400
Control_TS_3_A,3,test,R,284,1,620,350,P,0,<rshift>,1,0,702894,373
Control_TS_3_A,3,test,R,285,1,620,350,R,1,<rshift>,1,1,703894,427
Control_TS_3_A,3,test,R,286,3,620,550,R,1,NONE,0,0,704894,950
Control_TS_3_A,3,test,R,287,4,820,550,R,1,<rshift>,1,1,705894,360
Control_TS_3_A,3,test,R,288,3,620,550,R,1,<rshift>,1,1,706894,339
Control_TS_3_A,3,test,R,289,3,620,550,R,1,<rshift>,1,1,707896,356
Control_TS_3_A,3,test,R,290,2,820,350,R,1,<rshift>,1,1,708894,573
Control_TS_3_A,3,test,R,291,1,620,350,R,1,<rshift>,1,1,709895,437
Control_TS_3_A,3,test,R,292,3,620,550,R,1,<rshift>,1,1,710896,740
Control_TS_3_A,3,test,R,293,4,820,550,R,1,<rshift>,1,1,711894,396
Control_TS_3_A,3,test,R,294,3,620,550,R,1,<rshift>,1,1,712894,482
Control_TS_3_A,3,test,R,295,4,820,550,R,1,<rshift>,1,1,713896,365
Control_TS_3_A,3,test,R,296,1,620,350,R,1,<rshift>,1,1,714894,453
Control_TS_3_A,3,test,R,297,1,620,350,R,1,<rshift>,1,1,715894,383
Control_TS_3_A,3,test,R,298,3,620,550,P,0,<rshift>,1,0,716896,358
Control_TS_3_A,3,test,R,299,4,820,550,P,0,<rshift>,1,0,717896,271
Control_TS_3_A,3,test,R,300,4,820,550,R,1,<rshift>,1,1,718894,353
