subnum,block,type,correctresponse,trial,choice,x,y,stim,present,response,responded,corr,starttime,rt
participant_30_B,0,practice,P,1,3,620,550,P,1,<rshift>,1,1,25446,454
participant_30_B,0,practice,P,2,1,620,350,P,1,<rshift>,1,1,26445,528
participant_30_B,0,practice,P,3,2,820,350,P,1,<rshift>,1,1,27445,319
participant_30_B,0,practice,P,4,1,620,350,R,0,<rshift>,1,0,28446,317
participant_30_B,0,practice,P,5,1,620,350,P,1,NONE,0,0,29779,950
participant_30_B,0,practice,P,6,4,820,550,P,1,NONE,0,0,31744,950
participant_30_B,0,practice,P,7,2,820,350,P,1,NONE,0,0,33708,950
participant_30_B,0,practice,P,8,3,620,550,P,1,NONE,0,0,35678,950
participant_30_B,0,practice,P,9,1,620,350,R,0,NONE,0,1,37638,951
participant_30_B,0,practice,P,10,2,820,350,P,1,NONE,0,0,38593,950
participant_30_B,1,test,P,1,3,620,550,P,1,<rshift>,1,1,45369,605
participant_30_B,1,test,P,2,3,620,550,P,1,<rshift>,1,1,46371,669
participant_30_B,1,test,P,3,2,820,350,P,1,<rshift>,1,1,47369,466
participant_30_B,1,test,P,4,2,820,350,P,1,<rshift>,1,1,48369,416
participant_30_B,1,test,P,5,2,820,350,P,1,<rshift>,1,1,49368,608
participant_30_B,1,test,P,6,2,820,350,P,1,<rshift>,1,1,50371,354
participant_30_B,1,test,P,7,4,820,550,P,1,<rshift>,1,1,51369,450
participant_30_B,1,test,P,8,4,820,550,P,1,<rshift>,1,1,52369,464
participant_30_B,1,test,P,9,3,620,550,P,1,<rshift>,1,1,53368,462
participant_30_B,1,test,P,10,3,620,550,P,1,<rshift>,1,1,54371,462
participant_30_B,1,test,P,11,2,820,350,R,0,<rshift>,1,0,55370,370
participant_30_B,1,test,P,12,1,620,350,P,1,<rshift>,1,1,56369,454
participant_30_B,1,test,P,13,1,620,350,P,1,<rshift>,1,1,57368,461
participant_30_B,1,test,P,14,4,820,550,P,1,<rshift>,1,1,58368,469
participant_30_B,1,test,P,15,2,820,350,R,0,NONE,0,1,59368,951
participant_30_B,1,test,P,16,1,620,350,P,1,<rshift>,1,1,60368,272
participant_30_B,1,test,P,17,3,620,550,P,1,<rshift>,1,1,61368,427
participant_30_B,1,test,P,18,1,620,350,P,1,<rshift>,1,1,62372,407
participant_30_B,1,test,P,19,1,620,350,P,1,<rshift>,1,1,63368,381
participant_30_B,1,test,P,20,4,820,550,P,1,<rshift>,1,1,64369,550
participant_30_B,1,test,P,21,2,820,350,P,1,<rshift>,1,1,65368,469
participant_30_B,1,test,P,22,3,620,550,P,1,<rshift>,1,1,66368,441
participant_30_B,1,test,P,23,4,820,550,P,1,<rshift>,1,1,67369,353
participant_30_B,1,test,P,24,4,820,550,P,1,<rshift>,1,1,68371,363
participant_30_B,1,test,P,25,1,620,350,P,1,<rshift>,1,1,69368,441
participant_30_B,1,test,P,26,2,820,350,P,1,<rshift>,1,1,70369,445
participant_30_B,1,test,P,27,1,620,350,P,1,<rshift>,1,1,71368,418
participant_30_B,1,test,P,28,4,820,550,P,1,<rshift>,1,1,72368,409
participant_30_B,1,test,P,29,4,820,550,P,1,<rshift>,1,1,73371,427
participant_30_B,1,test,P,30,1,620,350,P,1,<rshift>,1,1,74370,488
participant_30_B,1,test,P,31,1,620,350,P,1,<rshift>,1,1,75368,457
participant_30_B,1,test,P,32,1,620,350,P,1,<rshift>,1,1,76368,513
participant_30_B,1,test,P,33,2,820,350,P,1,<rshift>,1,1,77369,429
participant_30_B,1,test,P,34,1,620,350,R,0,NONE,0,1,78369,950
participant_30_B,1,test,P,35,4,820,550,R,0,<rshift>,1,0,79368,327
participant_30_B,1,test,P,36,2,820,350,R,0,NONE,0,1,80369,950
participant_30_B,1,test,P,37,4,820,550,P,1,<rshift>,1,1,81369,470
participant_30_B,1,test,P,38,3,620,550,P,1,<rshift>,1,1,82372,525
participant_30_B,1,test,P,39,1,620,350,P,1,<rshift>,1,1,83368,412
participant_30_B,1,test,P,40,2,820,350,P,1,<rshift>,1,1,84368,386
participant_30_B,1,test,P,41,2,820,350,P,1,<rshift>,1,1,85371,413
participant_30_B,1,test,P,42,4,820,550,P,1,<rshift>,1,1,86369,391
participant_30_B,1,test,P,43,3,620,550,P,1,<rshift>,1,1,87369,496
participant_30_B,1,test,P,44,2,820,350,R,0,NONE,0,1,88368,950
participant_30_B,1,test,P,45,3,620,550,P,1,<rshift>,1,1,89368,399
participant_30_B,1,test,P,46,3,620,550,R,0,NONE,0,1,90371,951
participant_30_B,1,test,P,47,2,820,350,P,1,<rshift>,1,1,91368,445
participant_30_B,1,test,P,48,1,620,350,P,1,<rshift>,1,1,92369,495
participant_30_B,1,test,P,49,1,620,350,P,1,<rshift>,1,1,93368,404
participant_30_B,1,test,P,50,3,620,550,R,0,NONE,0,1,94369,950
participant_30_B,1,test,P,51,4,820,550,P,1,<rshift>,1,1,95368,325
participant_30_B,1,test,P,52,3,620,550,P,1,<rshift>,1,1,96370,534
participant_30_B,1,test,P,53,2,820,350,P,1,<rshift>,1,1,97368,467
participant_30_B,1,test,P,54,1,620,350,P,1,<rshift>,1,1,98369,412
participant_30_B,1,test,P,55,3,620,550,P,1,<rshift>,1,1,99368,463
participant_30_B,1,test,P,56,4,820,550,P,1,<rshift>,1,1,100368,444
participant_30_B,1,test,P,57,1,620,350,P,1,<rshift>,1,1,101368,441
participant_30_B,1,test,P,58,4,820,550,P,1,<rshift>,1,1,102368,401
participant_30_B,1,test,P,59,2,820,350,P,1,<rshift>,1,1,103370,420
participant_30_B,1,test,P,60,4,820,550,P,1,<rshift>,1,1,104371,465
participant_30_B,1,test,P,61,4,820,550,P,1,<rshift>,1,1,105368,392
participant_30_B,1,test,P,62,2,820,350,R,0,<rshift>,1,0,106369,375
participant_30_B,1,test,P,63,4,820,550,P,1,<rshift>,1,1,107369,444
participant_30_B,1,test,P,64,1,620,350,R,0,<rshift>,1,0,108369,423
participant_30_B,1,test,P,65,3,620,550,R,0,NONE,0,1,109371,951
participant_30_B,1,test,P,66,3,620,550,P,1,<rshift>,1,1,110368,634
participant_30_B,1,test,P,67,1,620,350,P,1,<rshift>,1,1,111369,466
participant_30_B,1,test,P,68,2,820,350,P,1,<rshift>,1,1,112369,469
participant_30_B,1,test,P,69,2,820,350,P,1,<rshift>,1,1,113368,475
participant_30_B,1,test,P,70,3,620,550,P,1,<rshift>,1,1,114368,467
participant_30_B,1,test,P,71,3,620,550,P,1,<rshift>,1,1,115368,477
participant_30_B,1,test,P,72,2,820,350,P,1,<rshift>,1,1,116368,491
participant_30_B,1,test,P,73,3,620,550,P,1,<rshift>,1,1,117368,420
participant_30_B,1,test,P,74,1,620,350,P,1,<rshift>,1,1,118369,516
participant_30_B,1,test,P,75,4,820,550,P,1,<rshift>,1,1,119368,440
participant_30_B,1,test,P,76,2,820,350,P,1,<rshift>,1,1,120372,346
participant_30_B,1,test,P,77,4,820,550,P,1,<rshift>,1,1,121369,407
participant_30_B,1,test,P,78,3,620,550,P,1,<rshift>,1,1,122368,374
participant_30_B,1,test,P,79,1,620,350,R,0,<rshift>,1,0,123368,358
participant_30_B,1,test,P,80,3,620,550,P,1,<rshift>,1,1,124369,416
participant_30_B,1,test,P,81,3,620,550,R,0,NONE,0,1,125369,950
participant_30_B,1,test,P,82,4,820,550,P,1,<rshift>,1,1,126368,418
participant_30_B,1,test,P,83,2,820,350,P,1,<rshift>,1,1,127368,419
participant_30_B,1,test,P,84,4,820,550,P,1,<rshift>,1,1,128369,440
participant_30_B,1,test,P,85,3,620,550,P,1,<rshift>,1,1,129368,509
participant_30_B,1,test,P,86,1,620,350,P,1,<rshift>,1,1,130368,672
participant_30_B,1,test,P,87,3,620,550,P,1,<rshift>,1,1,131369,383
participant_30_B,1,test,P,88,1,620,350,P,1,<rshift>,1,1,132369,424
participant_30_B,1,test,P,89,1,620,350,P,1,<rshift>,1,1,133369,433
participant_30_B,1,test,P,90,2,820,350,P,1,<rshift>,1,1,134368,424
participant_30_B,1,test,P,91,2,820,350,P,1,<rshift>,1,1,135369,445
participant_30_B,1,test,P,92,3,620,550,P,1,<rshift>,1,1,136371,447
participant_30_B,1,test,P,93,3,620,550,R,0,NONE,0,1,137371,951
participant_30_B,1,test,P,94,2,820,350,P,1,<rshift>,1,1,138369,367
participant_30_B,1,test,P,95,2,820,350,P,1,<rshift>,1,1,139370,476
participant_30_B,1,test,P,96,1,620,350,P,1,<rshift>,1,1,140368,374
participant_30_B,1,test,P,97,2,820,350,R,0,<rshift>,1,0,141369,379
participant_30_B,1,test,P,98,1,620,350,P,1,<rshift>,1,1,142369,439
participant_30_B,1,test,P,99,3,620,550,P,1,<rshift>,1,1,143369,367
participant_30_B,1,test,P,100,1,620,350,R,0,<rshift>,1,0,144368,371
participant_30_B,1,test,P,101,2,820,350,P,1,<rshift>,1,1,145370,446
participant_30_B,1,test,P,102,3,620,550,P,1,<rshift>,1,1,146369,460
participant_30_B,1,test,P,103,1,620,350,P,1,<rshift>,1,1,147368,403
participant_30_B,1,test,P,104,1,620,350,P,1,<rshift>,1,1,148369,476
participant_30_B,1,test,P,105,4,820,550,P,1,<rshift>,1,1,149368,504
participant_30_B,1,test,P,106,4,820,550,P,1,<rshift>,1,1,150368,520
participant_30_B,1,test,P,107,1,620,350,P,1,<rshift>,1,1,151368,388
participant_30_B,1,test,P,108,4,820,550,R,0,<rshift>,1,0,152369,396
participant_30_B,1,test,P,109,3,620,550,P,1,<rshift>,1,1,153368,429
participant_30_B,1,test,P,110,2,820,350,R,0,<rshift>,1,0,154368,467
participant_30_B,1,test,P,111,2,820,350,P,1,<rshift>,1,1,155369,492
participant_30_B,1,test,P,112,1,620,350,P,1,<rshift>,1,1,156369,499
participant_30_B,1,test,P,113,4,820,550,P,1,<rshift>,1,1,157368,482
participant_30_B,1,test,P,114,4,820,550,P,1,<rshift>,1,1,158368,397
participant_30_B,1,test,P,115,1,620,350,R,0,<rshift>,1,0,159368,348
participant_30_B,1,test,P,116,4,820,550,R,0,<rshift>,1,0,160369,378
participant_30_B,1,test,P,117,3,620,550,P,1,<rshift>,1,1,161369,601
participant_30_B,1,test,P,118,3,620,550,P,1,<rshift>,1,1,162368,479
participant_30_B,1,test,P,119,1,620,350,P,1,<rshift>,1,1,163369,515
participant_30_B,1,test,P,120,3,620,550,P,1,<rshift>,1,1,164368,352
participant_30_B,1,test,P,121,1,620,350,P,1,<rshift>,1,1,165368,381
participant_30_B,1,test,P,122,4,820,550,P,1,<rshift>,1,1,166368,420
participant_30_B,1,test,P,123,2,820,350,P,1,<rshift>,1,1,167368,385
participant_30_B,1,test,P,124,2,820,350,P,1,<rshift>,1,1,168369,427
participant_30_B,1,test,P,125,3,620,550,P,1,<rshift>,1,1,169368,427
participant_30_B,1,test,P,126,4,820,550,R,0,NONE,0,1,170372,950
participant_30_B,1,test,P,127,1,620,350,P,1,<rshift>,1,1,171369,403
participant_30_B,1,test,P,128,4,820,550,P,1,<rshift>,1,1,172369,644
participant_30_B,1,test,P,129,3,620,550,P,1,NONE,0,0,173368,950
participant_30_B,1,test,P,130,1,620,350,P,1,<rshift>,1,1,174371,351
participant_30_B,1,test,P,131,2,820,350,R,0,<rshift>,1,0,175371,359
participant_30_B,1,test,P,132,2,820,350,R,0,<rshift>,1,0,176368,370
participant_30_B,1,test,P,133,4,820,550,R,0,NONE,0,1,177368,950
participant_30_B,1,test,P,134,4,820,550,P,1,<rshift>,1,1,178370,555
participant_30_B,1,test,P,135,4,820,550,R,0,NONE,0,1,179369,950
participant_30_B,1,test,P,136,1,620,350,R,0,NONE,0,1,180370,950
participant_30_B,1,test,P,137,4,820,550,R,0,NONE,0,1,181368,951
participant_30_B,1,test,P,138,3,620,550,P,1,<rshift>,1,1,182368,578
participant_30_B,1,test,P,139,3,620,550,P,1,<rshift>,1,1,183370,530
participant_30_B,1,test,P,140,1,620,350,P,1,<rshift>,1,1,184369,537
participant_30_B,1,test,P,141,3,620,550,P,1,<rshift>,1,1,185369,473
participant_30_B,1,test,P,142,3,620,550,P,1,<rshift>,1,1,186369,456
participant_30_B,1,test,P,143,4,820,550,P,1,<rshift>,1,1,187368,392
participant_30_B,1,test,P,144,1,620,350,P,1,<rshift>,1,1,188369,418
participant_30_B,1,test,P,145,2,820,350,P,1,<rshift>,1,1,189371,437
participant_30_B,1,test,P,146,3,620,550,P,1,<rshift>,1,1,190372,464
participant_30_B,1,test,P,147,2,820,350,R,0,<rshift>,1,0,191369,402
participant_30_B,1,test,P,148,2,820,350,P,1,<rshift>,1,1,192370,609
participant_30_B,1,test,P,149,4,820,550,P,1,<rshift>,1,1,193368,594
participant_30_B,1,test,P,150,3,620,550,R,0,NONE,0,1,194368,951
participant_30_B,1,test,P,151,1,620,350,P,1,<rshift>,1,1,195370,419
participant_30_B,1,test,P,152,2,820,350,P,1,<rshift>,1,1,196368,466
participant_30_B,1,test,P,153,1,620,350,P,1,<rshift>,1,1,197370,594
participant_30_B,1,test,P,154,4,820,550,P,1,<rshift>,1,1,198370,513
participant_30_B,1,test,P,155,4,820,550,P,1,<rshift>,1,1,199371,487
participant_30_B,1,test,P,156,2,820,350,P,1,<rshift>,1,1,200368,388
participant_30_B,1,test,P,157,1,620,350,P,1,<rshift>,1,1,201369,329
participant_30_B,1,test,P,158,3,620,550,P,1,<rshift>,1,1,202368,307
participant_30_B,1,test,P,159,3,620,550,P,1,<rshift>,1,1,203368,367
participant_30_B,1,test,P,160,2,820,350,P,1,<rshift>,1,1,204372,407
participant_30_B,1,test,P,161,3,620,550,P,1,<rshift>,1,1,205372,513
participant_30_B,1,test,P,162,1,620,350,P,1,<rshift>,1,1,206370,407
participant_30_B,1,test,P,163,2,820,350,P,1,<rshift>,1,1,207368,360
participant_30_B,1,test,P,164,4,820,550,P,1,<rshift>,1,1,208368,372
participant_30_B,1,test,P,165,3,620,550,R,0,NONE,0,1,209368,951
participant_30_B,1,test,P,166,3,620,550,P,1,<rshift>,1,1,210368,410
participant_30_B,1,test,P,167,1,620,350,P,1,<rshift>,1,1,211368,404
participant_30_B,1,test,P,168,3,620,550,P,1,<rshift>,1,1,212368,392
participant_30_B,1,test,P,169,1,620,350,P,1,<rshift>,1,1,213369,445
participant_30_B,1,test,P,170,1,620,350,P,1,<rshift>,1,1,214368,438
participant_30_B,1,test,P,171,3,620,550,P,1,<rshift>,1,1,215368,367
participant_30_B,1,test,P,172,3,620,550,P,1,<rshift>,1,1,216371,424
participant_30_B,1,test,P,173,4,820,550,R,0,NONE,0,1,217370,950
participant_30_B,1,test,P,174,1,620,350,P,1,<rshift>,1,1,218368,434
participant_30_B,1,test,P,175,2,820,350,P,1,<rshift>,1,1,219368,419
participant_30_B,1,test,P,176,1,620,350,P,1,<rshift>,1,1,220368,550
participant_30_B,1,test,P,177,1,620,350,R,0,NONE,0,1,221368,950
participant_30_B,1,test,P,178,1,620,350,P,1,<rshift>,1,1,222368,612
participant_30_B,1,test,P,179,1,620,350,P,1,<rshift>,1,1,223368,696
participant_30_B,1,test,P,180,2,820,350,P,1,NONE,0,0,224368,950
participant_30_B,1,test,P,181,2,820,350,P,1,<rshift>,1,1,225368,686
participant_30_B,1,test,P,182,3,620,550,P,1,<rshift>,1,1,226368,346
participant_30_B,1,test,P,183,1,620,350,P,1,<rshift>,1,1,227369,381
participant_30_B,1,test,P,184,2,820,350,P,1,<rshift>,1,1,228368,361
participant_30_B,1,test,P,185,2,820,350,R,0,NONE,0,1,229368,950
participant_30_B,1,test,P,186,4,820,550,P,1,<rshift>,1,1,230368,509
participant_30_B,1,test,P,187,3,620,550,P,1,<rshift>,1,1,231370,426
participant_30_B,1,test,P,188,3,620,550,P,1,<rshift>,1,1,232368,481
participant_30_B,1,test,P,189,4,820,550,P,1,<rshift>,1,1,233368,414
participant_30_B,1,test,P,190,4,820,550,P,1,<rshift>,1,1,234369,439
participant_30_B,1,test,P,191,3,620,550,P,1,<rshift>,1,1,235368,545
participant_30_B,1,test,P,192,3,620,550,R,0,NONE,0,1,236368,951
participant_30_B,1,test,P,193,1,620,350,P,1,<rshift>,1,1,237368,417
participant_30_B,1,test,P,194,4,820,550,R,0,NONE,0,1,238368,951
participant_30_B,1,test,P,195,2,820,350,P,1,<rshift>,1,1,239368,397
participant_30_B,1,test,P,196,3,620,550,P,1,<rshift>,1,1,240369,576
participant_30_B,1,test,P,197,2,820,350,P,1,<rshift>,1,1,241368,480
participant_30_B,1,test,P,198,4,820,550,P,1,<rshift>,1,1,242369,533
participant_30_B,1,test,P,199,4,820,550,P,1,<rshift>,1,1,243368,545
participant_30_B,1,test,P,200,3,620,550,P,1,<rshift>,1,1,244368,540
participant_30_B,1,test,P,201,1,620,350,P,1,<rshift>,1,1,245368,450
participant_30_B,1,test,P,202,4,820,550,P,1,<rshift>,1,1,246369,412
participant_30_B,1,test,P,203,4,820,550,P,1,<rshift>,1,1,247368,469
participant_30_B,1,test,P,204,3,620,550,P,1,<rshift>,1,1,248369,555
participant_30_B,1,test,P,205,3,620,550,R,0,<rshift>,1,0,249369,865
participant_30_B,1,test,P,206,3,620,550,P,1,<rshift>,1,1,250369,685
participant_30_B,1,test,P,207,2,820,350,P,1,<rshift>,1,1,251368,520
participant_30_B,1,test,P,208,3,620,550,R,0,NONE,0,1,252368,950
participant_30_B,1,test,P,209,4,820,550,P,1,<rshift>,1,1,253368,413
participant_30_B,1,test,P,210,4,820,550,R,0,NONE,0,1,254368,950
participant_30_B,1,test,P,211,4,820,550,R,0,NONE,0,1,255372,950
participant_30_B,1,test,P,212,4,820,550,P,1,<rshift>,1,1,256368,551
participant_30_B,1,test,P,213,1,620,350,R,0,NONE,0,1,257368,951
participant_30_B,1,test,P,214,4,820,550,P,1,<rshift>,1,1,258370,420
participant_30_B,1,test,P,215,2,820,350,P,1,<rshift>,1,1,259369,497
participant_30_B,1,test,P,216,2,820,350,P,1,<rshift>,1,1,260368,543
participant_30_B,1,test,P,217,2,820,350,R,0,NONE,0,1,261368,951
participant_30_B,1,test,P,218,1,620,350,P,1,<rshift>,1,1,262368,389
participant_30_B,1,test,P,219,1,620,350,R,0,<rshift>,1,0,263370,485
participant_30_B,1,test,P,220,3,620,550,P,1,<rshift>,1,1,264368,497
participant_30_B,1,test,P,221,3,620,550,P,1,<rshift>,1,1,265371,470
participant_30_B,1,test,P,222,3,620,550,R,0,NONE,0,1,266368,951
participant_30_B,1,test,P,223,1,620,350,P,1,<rshift>,1,1,267368,475
participant_30_B,1,test,P,224,3,620,550,R,0,NONE,0,1,268369,950
participant_30_B,1,test,P,225,4,820,550,R,0,<rshift>,1,0,269369,357
participant_30_B,1,test,P,226,3,620,550,P,1,<rshift>,1,1,270368,482
participant_30_B,1,test,P,227,3,620,550,P,1,<rshift>,1,1,271369,631
participant_30_B,1,test,P,228,1,620,350,P,1,<rshift>,1,1,272369,523
participant_30_B,1,test,P,229,2,820,350,P,1,<rshift>,1,1,273368,485
participant_30_B,1,test,P,230,3,620,550,P,1,<rshift>,1,1,274370,549
participant_30_B,1,test,P,231,3,620,550,P,1,<rshift>,1,1,275368,5
participant_30_B,1,test,P,232,4,820,550,P,1,<rshift>,1,1,276369,371
participant_30_B,1,test,P,233,4,820,550,P,1,<rshift>,1,1,277369,390
participant_30_B,1,test,P,234,1,620,350,P,1,<rshift>,1,1,278368,424
participant_30_B,1,test,P,235,2,820,350,P,1,<rshift>,1,1,279368,523
participant_30_B,1,test,P,236,2,820,350,R,0,NONE,0,1,280369,951
participant_30_B,1,test,P,237,4,820,550,P,1,<rshift>,1,1,281368,394
participant_30_B,1,test,P,238,4,820,550,P,1,<rshift>,1,1,282370,456
participant_30_B,1,test,P,239,4,820,550,R,0,NONE,0,1,283371,951
participant_30_B,1,test,P,240,3,620,550,P,1,<rshift>,1,1,284368,394
participant_30_B,1,test,P,241,4,820,550,P,1,<rshift>,1,1,285369,550
participant_30_B,1,test,P,242,3,620,550,P,1,<rshift>,1,1,286369,521
participant_30_B,1,test,P,243,1,620,350,P,1,<rshift>,1,1,287370,497
participant_30_B,1,test,P,244,1,620,350,P,1,<rshift>,1,1,288368,425
participant_30_B,1,test,P,245,3,620,550,P,1,<rshift>,1,1,289368,477
participant_30_B,1,test,P,246,1,620,350,R,0,NONE,0,1,290368,950
participant_30_B,1,test,P,247,2,820,350,P,1,<rshift>,1,1,291368,445
participant_30_B,1,test,P,248,3,620,550,P,1,<rshift>,1,1,292370,473
participant_30_B,1,test,P,249,2,820,350,P,1,<rshift>,1,1,293370,464
participant_30_B,1,test,P,250,2,820,350,P,1,<rshift>,1,1,294370,458
participant_30_B,1,test,P,251,1,620,350,R,0,<rshift>,1,0,295371,425
participant_30_B,1,test,P,252,2,820,350,R,0,NONE,0,1,296370,950
participant_30_B,1,test,P,253,2,820,350,P,1,<rshift>,1,1,297368,444
participant_30_B,1,test,P,254,2,820,350,P,1,<rshift>,1,1,298368,520
participant_30_B,1,test,P,255,3,620,550,R,0,NONE,0,1,299369,950
participant_30_B,1,test,P,256,3,620,550,P,1,<rshift>,1,1,300368,590
participant_30_B,1,test,P,257,4,820,550,P,1,<rshift>,1,1,301372,477
participant_30_B,1,test,P,258,2,820,350,P,1,<rshift>,1,1,302368,498
participant_30_B,1,test,P,259,1,620,350,P,1,<rshift>,1,1,303368,506
participant_30_B,1,test,P,260,4,820,550,P,1,<rshift>,1,1,304368,408
participant_30_B,1,test,P,261,4,820,550,R,0,<rshift>,1,0,305368,448
participant_30_B,1,test,P,262,2,820,350,P,1,<rshift>,1,1,306368,484
participant_30_B,1,test,P,263,4,820,550,P,1,<rshift>,1,1,307368,528
participant_30_B,1,test,P,264,3,620,550,P,1,<rshift>,1,1,308369,505
participant_30_B,1,test,P,265,3,620,550,P,1,<rshift>,1,1,309369,462
participant_30_B,1,test,P,266,3,620,550,P,1,<rshift>,1,1,310371,598
participant_30_B,1,test,P,267,2,820,350,P,1,<rshift>,1,1,311368,499
participant_30_B,1,test,P,268,1,620,350,P,1,<rshift>,1,1,312369,385
participant_30_B,1,test,P,269,4,820,550,R,0,<rshift>,1,0,313369,404
participant_30_B,1,test,P,270,2,820,350,P,1,<rshift>,1,1,314368,547
participant_30_B,1,test,P,271,2,820,350,P,1,<rshift>,1,1,315368,491
participant_30_B,1,test,P,272,1,620,350,P,1,<rshift>,1,1,316369,375
participant_30_B,1,test,P,273,4,820,550,P,1,<rshift>,1,1,317371,416
participant_30_B,1,test,P,274,2,820,350,P,1,<rshift>,1,1,318368,381
participant_30_B,1,test,P,275,1,620,350,R,0,<rshift>,1,0,319369,324
participant_30_B,1,test,P,276,2,820,350,R,0,NONE,0,1,320370,950
participant_30_B,1,test,P,277,2,820,350,P,1,<rshift>,1,1,321371,448
participant_30_B,1,test,P,278,2,820,350,P,1,<rshift>,1,1,322368,638
participant_30_B,1,test,P,279,3,620,550,P,1,<rshift>,1,1,323370,517
participant_30_B,1,test,P,280,4,820,550,R,0,NONE,0,1,324369,950
participant_30_B,1,test,P,281,3,620,550,R,0,NONE,0,1,325369,950
participant_30_B,1,test,P,282,4,820,550,P,1,<rshift>,1,1,326368,540
participant_30_B,1,test,P,283,3,620,550,P,1,<rshift>,1,1,327368,570
participant_30_B,1,test,P,284,2,820,350,P,1,<rshift>,1,1,328368,522
participant_30_B,1,test,P,285,4,820,550,R,0,NONE,0,1,329368,951
participant_30_B,1,test,P,286,4,820,550,P,1,<rshift>,1,1,330371,581
participant_30_B,1,test,P,287,4,820,550,P,1,<rshift>,1,1,331369,504
participant_30_B,1,test,P,288,1,620,350,P,1,<rshift>,1,1,332368,491
participant_30_B,1,test,P,289,4,820,550,P,1,<rshift>,1,1,333371,437
participant_30_B,1,test,P,290,4,820,550,P,1,<rshift>,1,1,334370,444
participant_30_B,1,test,P,291,3,620,550,P,1,<rshift>,1,1,335372,409
participant_30_B,1,test,P,292,3,620,550,R,0,NONE,0,1,336368,950
participant_30_B,1,test,P,293,4,820,550,P,1,<rshift>,1,1,337369,513
participant_30_B,1,test,P,294,4,820,550,P,1,<rshift>,1,1,338368,529
participant_30_B,1,test,P,295,1,620,350,P,1,<rshift>,1,1,339368,588
participant_30_B,1,test,P,296,4,820,550,P,1,<rshift>,1,1,340371,497
participant_30_B,1,test,P,297,1,620,350,R,0,NONE,0,1,341368,951
participant_30_B,1,test,P,298,3,620,550,P,1,<rshift>,1,1,342368,560
participant_30_B,1,test,P,299,2,820,350,P,1,<rshift>,1,1,343368,516
participant_30_B,1,test,P,300,2,820,350,P,1,<rshift>,1,1,344370,604
participant_30_B,2,practice,R,1,3,620,550,P,0,NONE,0,1,383352,950
participant_30_B,2,practice,R,2,4,820,550,R,1,<rshift>,1,1,384351,480
participant_30_B,2,practice,R,3,4,820,550,R,1,<rshift>,1,1,385355,424
participant_30_B,2,practice,R,4,4,820,550,R,1,<rshift>,1,1,386354,429
participant_30_B,2,practice,R,5,1,620,350,R,1,<rshift>,1,1,387352,433
participant_30_B,2,practice,R,6,2,820,350,P,0,NONE,0,1,388352,950
participant_30_B,2,practice,R,7,4,820,550,R,1,<rshift>,1,1,389352,552
participant_30_B,2,practice,R,8,1,620,350,R,1,<rshift>,1,1,390352,508
participant_30_B,2,practice,R,9,4,820,550,R,1,<rshift>,1,1,391351,482
participant_30_B,2,practice,R,10,3,620,550,R,1,<rshift>,1,1,392352,430
participant_30_B,3,test,R,1,4,820,550,P,0,NONE,0,1,403255,950
participant_30_B,3,test,R,2,1,620,350,P,0,NONE,0,1,404257,950
participant_30_B,3,test,R,3,1,620,350,P,0,NONE,0,1,405255,950
participant_30_B,3,test,R,4,4,820,550,R,1,<rshift>,1,1,406256,493
participant_30_B,3,test,R,5,4,820,550,R,1,<rshift>,1,1,407254,456
participant_30_B,3,test,R,6,4,820,550,R,1,<rshift>,1,1,408255,498
participant_30_B,3,test,R,7,2,820,350,R,1,<rshift>,1,1,409254,528
participant_30_B,3,test,R,8,1,620,350,R,1,<rshift>,1,1,410254,424
participant_30_B,3,test,R,9,1,620,350,R,1,<rshift>,1,1,411254,427
participant_30_B,3,test,R,10,2,820,350,P,0,NONE,0,1,412254,950
participant_30_B,3,test,R,11,2,820,350,R,1,<rshift>,1,1,413254,684
participant_30_B,3,test,R,12,4,820,550,P,0,NONE,0,1,414255,950
participant_30_B,3,test,R,13,4,820,550,R,1,<rshift>,1,1,415254,533
participant_30_B,3,test,R,14,3,620,550,R,1,<rshift>,1,1,416254,482
participant_30_B,3,test,R,15,1,620,350,R,1,<rshift>,1,1,417255,419
participant_30_B,3,test,R,16,2,820,350,R,1,<rshift>,1,1,418255,413
participant_30_B,3,test,R,17,1,620,350,R,1,<rshift>,1,1,419254,394
participant_30_B,3,test,R,18,3,620,550,R,1,<rshift>,1,1,420254,397
participant_30_B,3,test,R,19,4,820,550,P,0,<rshift>,1,0,421255,408
participant_30_B,3,test,R,20,3,620,550,R,1,<rshift>,1,1,422254,514
participant_30_B,3,test,R,21,4,820,550,R,1,<rshift>,1,1,423254,582
participant_30_B,3,test,R,22,3,620,550,R,1,<rshift>,1,1,424255,532
participant_30_B,3,test,R,23,1,620,350,R,1,<rshift>,1,1,425254,455
participant_30_B,3,test,R,24,1,620,350,R,1,<rshift>,1,1,426254,469
participant_30_B,3,test,R,25,4,820,550,R,1,<rshift>,1,1,427254,388
participant_30_B,3,test,R,26,3,620,550,R,1,<rshift>,1,1,428255,394
participant_30_B,3,test,R,27,2,820,350,P,0,NONE,0,1,429255,950
participant_30_B,3,test,R,28,1,620,350,P,0,<rshift>,1,0,430254,440
participant_30_B,3,test,R,29,2,820,350,P,0,NONE,0,1,431257,950
participant_30_B,3,test,R,30,3,620,550,P,0,NONE,0,1,432255,950
participant_30_B,3,test,R,31,2,820,350,P,0,NONE,0,1,433254,951
participant_30_B,3,test,R,32,3,620,550,R,1,<rshift>,1,1,434254,530
participant_30_B,3,test,R,33,4,820,550,R,1,<rshift>,1,1,435254,471
participant_30_B,3,test,R,34,3,620,550,R,1,<rshift>,1,1,436257,457
participant_30_B,3,test,R,35,4,820,550,P,0,NONE,0,1,437254,951
participant_30_B,3,test,R,36,4,820,550,R,1,<rshift>,1,1,438254,566
participant_30_B,3,test,R,37,1,620,350,R,1,<rshift>,1,1,439254,595
participant_30_B,3,test,R,38,4,820,550,R,1,<rshift>,1,1,440254,407
participant_30_B,3,test,R,39,1,620,350,R,1,<rshift>,1,1,441255,349
participant_30_B,3,test,R,40,3,620,550,R,1,<rshift>,1,1,442254,394
participant_30_B,3,test,R,41,2,820,350,P,0,NONE,0,1,443254,950
participant_30_B,3,test,R,42,3,620,550,P,0,<rshift>,1,0,444256,328
participant_30_B,3,test,R,43,3,620,550,R,1,<rshift>,1,1,445254,471
participant_30_B,3,test,R,44,3,620,550,R,1,<rshift>,1,1,446254,471
participant_30_B,3,test,R,45,1,620,350,R,1,<rshift>,1,1,447254,436
participant_30_B,3,test,R,46,3,620,550,R,1,<rshift>,1,1,448255,395
participant_30_B,3,test,R,47,4,820,550,P,0,<rshift>,1,0,449254,378
participant_30_B,3,test,R,48,2,820,350,R,1,<rshift>,1,1,450255,345
participant_30_B,3,test,R,49,1,620,350,R,1,<rshift>,1,1,451254,516
participant_30_B,3,test,R,50,3,620,550,R,1,<rshift>,1,1,452257,357
participant_30_B,3,test,R,51,4,820,550,R,1,<rshift>,1,1,453254,476
participant_30_B,3,test,R,52,4,820,550,R,1,<rshift>,1,1,454254,514
participant_30_B,3,test,R,53,1,620,350,P,0,<rshift>,1,0,455255,365
participant_30_B,3,test,R,54,4,820,550,R,1,<rshift>,1,1,456255,389
participant_30_B,3,test,R,55,1,620,350,R,1,<rshift>,1,1,457255,535
participant_30_B,3,test,R,56,3,620,550,P,0,NONE,0,1,458255,950
participant_30_B,3,test,R,57,2,820,350,R,1,<rshift>,1,1,459254,520
participant_30_B,3,test,R,58,3,620,550,R,1,<rshift>,1,1,460254,344
participant_30_B,3,test,R,59,2,820,350,R,1,<rshift>,1,1,461255,420
participant_30_B,3,test,R,60,3,620,550,R,1,<rshift>,1,1,462254,348
participant_30_B,3,test,R,61,1,620,350,R,1,<rshift>,1,1,463254,372
participant_30_B,3,test,R,62,2,820,350,R,1,<rshift>,1,1,464255,373
participant_30_B,3,test,R,63,4,820,550,R,1,<rshift>,1,1,465255,464
participant_30_B,3,test,R,64,3,620,550,P,0,<rshift>,1,0,466255,403
participant_30_B,3,test,R,65,2,820,350,P,0,NONE,0,1,467255,950
participant_30_B,3,test,R,66,2,820,350,R,1,<rshift>,1,1,468254,504
participant_30_B,3,test,R,67,1,620,350,P,0,NONE,0,1,469255,950
participant_30_B,3,test,R,68,4,820,550,P,0,NONE,0,1,470255,950
participant_30_B,3,test,R,69,4,820,550,R,1,<rshift>,1,1,471255,499
participant_30_B,3,test,R,70,4,820,550,R,1,<rshift>,1,1,472254,451
participant_30_B,3,test,R,71,2,820,350,R,1,<rshift>,1,1,473254,413
participant_30_B,3,test,R,72,2,820,350,R,1,<rshift>,1,1,474255,420
participant_30_B,3,test,R,73,2,820,350,P,0,NONE,0,1,475254,950
participant_30_B,3,test,R,74,1,620,350,R,1,<rshift>,1,1,476254,406
participant_30_B,3,test,R,75,4,820,550,R,1,<rshift>,1,1,477254,351
participant_30_B,3,test,R,76,3,620,550,P,0,<rshift>,1,0,478255,335
participant_30_B,3,test,R,77,3,620,550,R,1,<rshift>,1,1,479254,481
participant_30_B,3,test,R,78,1,620,350,R,1,<rshift>,1,1,480254,423
participant_30_B,3,test,R,79,2,820,350,R,1,<rshift>,1,1,481256,400
participant_30_B,3,test,R,80,4,820,550,P,0,<rshift>,1,0,482254,375
participant_30_B,3,test,R,81,2,820,350,R,1,<rshift>,1,1,483254,505
participant_30_B,3,test,R,82,2,820,350,P,0,<rshift>,1,0,484257,490
participant_30_B,3,test,R,83,2,820,350,R,1,<rshift>,1,1,485257,503
participant_30_B,3,test,R,84,2,820,350,R,1,<rshift>,1,1,486255,452
participant_30_B,3,test,R,85,4,820,550,R,1,<rshift>,1,1,487254,509
participant_30_B,3,test,R,86,3,620,550,R,1,<rshift>,1,1,488257,542
participant_30_B,3,test,R,87,3,620,550,R,1,<rshift>,1,1,489254,465
participant_30_B,3,test,R,88,1,620,350,P,0,NONE,0,1,490254,950
participant_30_B,3,test,R,89,4,820,550,P,0,NONE,0,1,491258,950
participant_30_B,3,test,R,90,3,620,550,R,1,<rshift>,1,1,492257,391
participant_30_B,3,test,R,91,1,620,350,R,1,<rshift>,1,1,493254,487
participant_30_B,3,test,R,92,3,620,550,P,0,NONE,0,1,494254,951
participant_30_B,3,test,R,93,1,620,350,R,1,<rshift>,1,1,495254,393
participant_30_B,3,test,R,94,2,820,350,R,1,<rshift>,1,1,496254,365
participant_30_B,3,test,R,95,4,820,550,P,0,<rshift>,1,0,497254,443
participant_30_B,3,test,R,96,1,620,350,P,0,NONE,0,1,498254,950
participant_30_B,3,test,R,97,1,620,350,R,1,<rshift>,1,1,499256,476
participant_30_B,3,test,R,98,4,820,550,R,1,<rshift>,1,1,500258,512
participant_30_B,3,test,R,99,3,620,550,R,1,<rshift>,1,1,501254,384
participant_30_B,3,test,R,100,2,820,350,R,1,<rshift>,1,1,502254,357
participant_30_B,3,test,R,101,3,620,550,R,1,<rshift>,1,1,503254,407
participant_30_B,3,test,R,102,1,620,350,R,1,<rshift>,1,1,504254,407
participant_30_B,3,test,R,103,2,820,350,R,1,<rshift>,1,1,505254,333
participant_30_B,3,test,R,104,4,820,550,R,1,<rshift>,1,1,506254,354
participant_30_B,3,test,R,105,4,820,550,R,1,<rshift>,1,1,507254,429
participant_30_B,3,test,R,106,1,620,350,R,1,<rshift>,1,1,508254,373
participant_30_B,3,test,R,107,3,620,550,R,1,<rshift>,1,1,509255,299
participant_30_B,3,test,R,108,3,620,550,R,1,<rshift>,1,1,510254,380
participant_30_B,3,test,R,109,4,820,550,R,1,<rshift>,1,1,511255,298
participant_30_B,3,test,R,110,4,820,550,R,1,<rshift>,1,1,512254,376
participant_30_B,3,test,R,111,1,620,350,P,0,<rshift>,1,0,513254,382
participant_30_B,3,test,R,112,4,820,550,R,1,<rshift>,1,1,514255,482
participant_30_B,3,test,R,113,1,620,350,P,0,NONE,0,1,515254,950
participant_30_B,3,test,R,114,4,820,550,R,1,<rshift>,1,1,516255,338
participant_30_B,3,test,R,115,1,620,350,R,1,<rshift>,1,1,517255,525
participant_30_B,3,test,R,116,4,820,550,P,0,NONE,0,1,518254,950
participant_30_B,3,test,R,117,2,820,350,R,1,<rshift>,1,1,519255,454
participant_30_B,3,test,R,118,4,820,550,P,0,NONE,0,1,520254,951
participant_30_B,3,test,R,119,4,820,550,R,1,<rshift>,1,1,521255,512
participant_30_B,3,test,R,120,4,820,550,P,0,NONE,0,1,522254,950
participant_30_B,3,test,R,121,2,820,350,R,1,<rshift>,1,1,523254,430
participant_30_B,3,test,R,122,4,820,550,R,1,<rshift>,1,1,524255,459
participant_30_B,3,test,R,123,4,820,550,R,1,<rshift>,1,1,525254,382
participant_30_B,3,test,R,124,2,820,350,R,1,<rshift>,1,1,526254,397
participant_30_B,3,test,R,125,2,820,350,R,1,<rshift>,1,1,527254,410
participant_30_B,3,test,R,126,1,620,350,R,1,<rshift>,1,1,528255,464
participant_30_B,3,test,R,127,3,620,550,R,1,<rshift>,1,1,529254,425
participant_30_B,3,test,R,128,2,820,350,R,1,<rshift>,1,1,530255,446
participant_30_B,3,test,R,129,2,820,350,R,1,<rshift>,1,1,531254,408
participant_30_B,3,test,R,130,3,620,550,R,1,<rshift>,1,1,532254,483
participant_30_B,3,test,R,131,4,820,550,R,1,<rshift>,1,1,533254,461
participant_30_B,3,test,R,132,3,620,550,R,1,<rshift>,1,1,534256,395
participant_30_B,3,test,R,133,2,820,350,P,0,<rshift>,1,0,535254,398
participant_30_B,3,test,R,134,3,620,550,R,1,<rshift>,1,1,536255,361
participant_30_B,3,test,R,135,2,820,350,P,0,NONE,0,1,537254,950
participant_30_B,3,test,R,136,2,820,350,R,1,<rshift>,1,1,538254,479
participant_30_B,3,test,R,137,2,820,350,R,1,<rshift>,1,1,539255,413
participant_30_B,3,test,R,138,2,820,350,R,1,<rshift>,1,1,540254,407
participant_30_B,3,test,R,139,4,820,550,R,1,<rshift>,1,1,541254,646
participant_30_B,3,test,R,140,4,820,550,R,1,<rshift>,1,1,542255,475
participant_30_B,3,test,R,141,4,820,550,R,1,<rshift>,1,1,543254,410
participant_30_B,3,test,R,142,4,820,550,R,1,<rshift>,1,1,544254,319
participant_30_B,3,test,R,143,1,620,350,R,1,<rshift>,1,1,545254,439
participant_30_B,3,test,R,144,4,820,550,P,0,<rshift>,1,0,546254,416
participant_30_B,3,test,R,145,4,820,550,R,1,<rshift>,1,1,547254,504
participant_30_B,3,test,R,146,3,620,550,R,1,<rshift>,1,1,548255,561
participant_30_B,3,test,R,147,3,620,550,R,1,<rshift>,1,1,549254,545
participant_30_B,3,test,R,148,1,620,350,R,1,<rshift>,1,1,550255,566
participant_30_B,3,test,R,149,2,820,350,P,0,NONE,0,1,551254,951
participant_30_B,3,test,R,150,3,620,550,R,1,<rshift>,1,1,552254,514
participant_30_B,3,test,R,151,1,620,350,R,1,<rshift>,1,1,553254,464
participant_30_B,3,test,R,152,4,820,550,R,1,<rshift>,1,1,554255,487
participant_30_B,3,test,R,153,4,820,550,R,1,<rshift>,1,1,555254,457
participant_30_B,3,test,R,154,1,620,350,R,1,<rshift>,1,1,556255,440
participant_30_B,3,test,R,155,2,820,350,R,1,<rshift>,1,1,557254,462
participant_30_B,3,test,R,156,1,620,350,R,1,<rshift>,1,1,558255,465
participant_30_B,3,test,R,157,1,620,350,R,1,<rshift>,1,1,559254,442
participant_30_B,3,test,R,158,4,820,550,R,1,<rshift>,1,1,560255,449
participant_30_B,3,test,R,159,1,620,350,R,1,<rshift>,1,1,561254,462
participant_30_B,3,test,R,160,4,820,550,R,1,<rshift>,1,1,562255,423
participant_30_B,3,test,R,161,2,820,350,R,1,<rshift>,1,1,563254,582
participant_30_B,3,test,R,162,2,820,350,R,1,<rshift>,1,1,564255,479
participant_30_B,3,test,R,163,4,820,550,R,1,<rshift>,1,1,565256,492
participant_30_B,3,test,R,164,2,820,350,P,0,<rshift>,1,0,566254,461
participant_30_B,3,test,R,165,1,620,350,P,0,NONE,0,1,567255,950
participant_30_B,3,test,R,166,3,620,550,R,1,<rshift>,1,1,568254,455
participant_30_B,3,test,R,167,3,620,550,R,1,<rshift>,1,1,569257,513
participant_30_B,3,test,R,168,4,820,550,R,1,<rshift>,1,1,570256,429
participant_30_B,3,test,R,169,3,620,550,R,1,<rshift>,1,1,571255,490
participant_30_B,3,test,R,170,3,620,550,P,0,NONE,0,1,572256,950
participant_30_B,3,test,R,171,4,820,550,R,1,<rshift>,1,1,573257,372
participant_30_B,3,test,R,172,4,820,550,R,1,<rshift>,1,1,574254,440
participant_30_B,3,test,R,173,2,820,350,R,1,<rshift>,1,1,575256,520
participant_30_B,3,test,R,174,2,820,350,P,0,NONE,0,1,576254,950
participant_30_B,3,test,R,175,3,620,550,R,1,<rshift>,1,1,577257,363
participant_30_B,3,test,R,176,2,820,350,R,1,<rshift>,1,1,578254,581
participant_30_B,3,test,R,177,2,820,350,R,1,<rshift>,1,1,579257,471
participant_30_B,3,test,R,178,4,820,550,R,1,<rshift>,1,1,580257,492
participant_30_B,3,test,R,179,3,620,550,R,1,<rshift>,1,1,581258,455
participant_30_B,3,test,R,180,4,820,550,R,1,<rshift>,1,1,582256,428
participant_30_B,3,test,R,181,2,820,350,R,1,<rshift>,1,1,583257,436
participant_30_B,3,test,R,182,2,820,350,R,1,<rshift>,1,1,584254,433
participant_30_B,3,test,R,183,4,820,550,R,1,<rshift>,1,1,585255,450
participant_30_B,3,test,R,184,3,620,550,R,1,<rshift>,1,1,586254,415
participant_30_B,3,test,R,185,3,620,550,R,1,<rshift>,1,1,587255,556
participant_30_B,3,test,R,186,2,820,350,R,1,<rshift>,1,1,588254,523
participant_30_B,3,test,R,187,1,620,350,R,1,<rshift>,1,1,589255,459
participant_30_B,3,test,R,188,4,820,550,R,1,<rshift>,1,1,590254,414
participant_30_B,3,test,R,189,4,820,550,R,1,<rshift>,1,1,591254,469
participant_30_B,3,test,R,190,1,620,350,R,1,<rshift>,1,1,592254,471
participant_30_B,3,test,R,191,3,620,550,R,1,<rshift>,1,1,593255,441
participant_30_B,3,test,R,192,1,620,350,R,1,<rshift>,1,1,594255,482
participant_30_B,3,test,R,193,4,820,550,P,0,<rshift>,1,0,595254,397
participant_30_B,3,test,R,194,2,820,350,R,1,<rshift>,1,1,596255,435
participant_30_B,3,test,R,195,4,820,550,R,1,<rshift>,1,1,597255,594
participant_30_B,3,test,R,196,3,620,550,P,0,<rshift>,1,0,598254,442
participant_30_B,3,test,R,197,3,620,550,R,1,<rshift>,1,1,599255,506
participant_30_B,3,test,R,198,4,820,550,R,1,<rshift>,1,1,600254,492
participant_30_B,3,test,R,199,4,820,550,R,1,<rshift>,1,1,601255,491
participant_30_B,3,test,R,200,2,820,350,R,1,<rshift>,1,1,602254,507
participant_30_B,3,test,R,201,4,820,550,R,1,<rshift>,1,1,603254,524
participant_30_B,3,test,R,202,1,620,350,R,1,<rshift>,1,1,604254,636
participant_30_B,3,test,R,203,2,820,350,R,1,<rshift>,1,1,605254,417
participant_30_B,3,test,R,204,2,820,350,R,1,<rshift>,1,1,606255,438
participant_30_B,3,test,R,205,3,620,550,P,0,NONE,0,1,607255,950
participant_30_B,3,test,R,206,1,620,350,R,1,<rshift>,1,1,608254,473
participant_30_B,3,test,R,207,1,620,350,R,1,<rshift>,1,1,609255,460
participant_30_B,3,test,R,208,3,620,550,R,1,<rshift>,1,1,610255,466
participant_30_B,3,test,R,209,1,620,350,R,1,<rshift>,1,1,611257,439
participant_30_B,3,test,R,210,3,620,550,R,1,<rshift>,1,1,612255,426
participant_30_B,3,test,R,211,1,620,350,R,1,<rshift>,1,1,613254,404
participant_30_B,3,test,R,212,1,620,350,R,1,<rshift>,1,1,614254,526
participant_30_B,3,test,R,213,4,820,550,R,1,<rshift>,1,1,615254,577
participant_30_B,3,test,R,214,2,820,350,P,0,NONE,0,1,616254,950
participant_30_B,3,test,R,215,3,620,550,R,1,<rshift>,1,1,617254,399
participant_30_B,3,test,R,216,1,620,350,R,1,<rshift>,1,1,618254,450
participant_30_B,3,test,R,217,1,620,350,P,0,NONE,0,1,619255,950
participant_30_B,3,test,R,218,2,820,350,R,1,<rshift>,1,1,620254,346
participant_30_B,3,test,R,219,3,620,550,R,1,<rshift>,1,1,621254,421
participant_30_B,3,test,R,220,3,620,550,R,1,<rshift>,1,1,622254,442
participant_30_B,3,test,R,221,3,620,550,R,1,<rshift>,1,1,623255,446
participant_30_B,3,test,R,222,2,820,350,R,1,<rshift>,1,1,624254,431
participant_30_B,3,test,R,223,1,620,350,R,1,<rshift>,1,1,625254,432
participant_30_B,3,test,R,224,3,620,550,R,1,<rshift>,1,1,626255,441
participant_30_B,3,test,R,225,2,820,350,R,1,<rshift>,1,1,627254,389
participant_30_B,3,test,R,226,3,620,550,R,1,<rshift>,1,1,628255,409
participant_30_B,3,test,R,227,4,820,550,P,0,<rshift>,1,0,629254,443
participant_30_B,3,test,R,228,2,820,350,P,0,NONE,0,1,630254,950
participant_30_B,3,test,R,229,2,820,350,P,0,NONE,0,1,631254,951
participant_30_B,3,test,R,230,4,820,550,R,1,<rshift>,1,1,632254,424
participant_30_B,3,test,R,231,4,820,550,P,0,NONE,0,1,633254,950
participant_30_B,3,test,R,232,1,620,350,R,1,<rshift>,1,1,634254,505
participant_30_B,3,test,R,233,3,620,550,R,1,<rshift>,1,1,635254,485
participant_30_B,3,test,R,234,2,820,350,R,1,<rshift>,1,1,636255,425
participant_30_B,3,test,R,235,2,820,350,R,1,<rshift>,1,1,637254,491
participant_30_B,3,test,R,236,3,620,550,P,0,<rshift>,1,0,638255,566
participant_30_B,3,test,R,237,1,620,350,R,1,<rshift>,1,1,639254,690
participant_30_B,3,test,R,238,1,620,350,R,1,<rshift>,1,1,640254,545
participant_30_B,3,test,R,239,1,620,350,R,1,<rshift>,1,1,641256,467
participant_30_B,3,test,R,240,2,820,350,R,1,<rshift>,1,1,642254,567
participant_30_B,3,test,R,241,3,620,550,R,1,<rshift>,1,1,643254,410
participant_30_B,3,test,R,242,4,820,550,R,1,<rshift>,1,1,644254,495
participant_30_B,3,test,R,243,3,620,550,R,1,<rshift>,1,1,645255,584
participant_30_B,3,test,R,244,4,820,550,R,1,<rshift>,1,1,646254,481
participant_30_B,3,test,R,245,4,820,550,R,1,<rshift>,1,1,647254,557
participant_30_B,3,test,R,246,1,620,350,R,1,<rshift>,1,1,648255,546
participant_30_B,3,test,R,247,1,620,350,R,1,<rshift>,1,1,649255,426
participant_30_B,3,test,R,248,3,620,550,R,1,<rshift>,1,1,650255,452
participant_30_B,3,test,R,249,4,820,550,R,1,<rshift>,1,1,651255,391
participant_30_B,3,test,R,250,4,820,550,R,1,<rshift>,1,1,652256,397
participant_30_B,3,test,R,251,4,820,550,P,0,<rshift>,1,0,653254,413
participant_30_B,3,test,R,252,1,620,350,P,0,<rshift>,1,0,654255,448
participant_30_B,3,test,R,253,1,620,350,R,1,<rshift>,1,1,655257,523
participant_30_B,3,test,R,254,2,820,350,R,1,<rshift>,1,1,656255,442
participant_30_B,3,test,R,255,1,620,350,R,1,<rshift>,1,1,657255,383
participant_30_B,3,test,R,256,1,620,350,R,1,<rshift>,1,1,658256,412
participant_30_B,3,test,R,257,4,820,550,P,0,NONE,0,1,659254,951
participant_30_B,3,test,R,258,1,620,350,R,1,<rshift>,1,1,660256,347
participant_30_B,3,test,R,259,1,620,350,R,1,<rshift>,1,1,661257,401
participant_30_B,3,test,R,260,1,620,350,R,1,<rshift>,1,1,662254,463
participant_30_B,3,test,R,261,4,820,550,R,1,<rshift>,1,1,663257,567
participant_30_B,3,test,R,262,2,820,350,R,1,<rshift>,1,1,664255,431
participant_30_B,3,test,R,263,1,620,350,R,1,<rshift>,1,1,665254,389
participant_30_B,3,test,R,264,1,620,350,R,1,<rshift>,1,1,666256,473
participant_30_B,3,test,R,265,2,820,350,R,1,<rshift>,1,1,667255,383
participant_30_B,3,test,R,266,1,620,350,R,1,<rshift>,1,1,668256,367
participant_30_B,3,test,R,267,1,620,350,R,1,<rshift>,1,1,669255,466
participant_30_B,3,test,R,268,2,820,350,R,1,<rshift>,1,1,670256,401
participant_30_B,3,test,R,269,1,620,350,R,1,<rshift>,1,1,671254,392
participant_30_B,3,test,R,270,3,620,550,R,1,<rshift>,1,1,672254,527
participant_30_B,3,test,R,271,4,820,550,R,1,<rshift>,1,1,673256,648
participant_30_B,3,test,R,272,1,620,350,R,1,<rshift>,1,1,674254,599
participant_30_B,3,test,R,273,4,820,550,R,1,<rshift>,1,1,675257,441
participant_30_B,3,test,R,274,2,820,350,R,1,<rshift>,1,1,676254,404
participant_30_B,3,test,R,275,3,620,550,R,1,<rshift>,1,1,677258,477
participant_30_B,3,test,R,276,1,620,350,R,1,<rshift>,1,1,678254,594
participant_30_B,3,test,R,277,2,820,350,P,0,NONE,0,1,679255,950
participant_30_B,3,test,R,278,4,820,550,R,1,<rshift>,1,1,680255,713
participant_30_B,3,test,R,279,2,820,350,R,1,<rshift>,1,1,681254,732
participant_30_B,3,test,R,280,1,620,350,R,1,<rshift>,1,1,682254,412
participant_30_B,3,test,R,281,1,620,350,R,1,<rshift>,1,1,683255,478
participant_30_B,3,test,R,282,2,820,350,R,1,<rshift>,1,1,684254,743
participant_30_B,3,test,R,283,4,820,550,R,1,<rshift>,1,1,685255,454
participant_30_B,3,test,R,284,1,620,350,R,1,<rshift>,1,1,686255,368
participant_30_B,3,test,R,285,2,820,350,R,1,<rshift>,1,1,687258,407
participant_30_B,3,test,R,286,1,620,350,R,1,<rshift>,1,1,688254,507
participant_30_B,3,test,R,287,1,620,350,R,1,<rshift>,1,1,689254,459
participant_30_B,3,test,R,288,1,620,350,P,0,NONE,0,1,690255,950
participant_30_B,3,test,R,289,4,820,550,R,1,<rshift>,1,1,691254,459
participant_30_B,3,test,R,290,2,820,350,R,1,<rshift>,1,1,692254,521
participant_30_B,3,test,R,291,1,620,350,R,1,<rshift>,1,1,693255,505
participant_30_B,3,test,R,292,2,820,350,R,1,<rshift>,1,1,694254,449
participant_30_B,3,test,R,293,1,620,350,R,1,<rshift>,1,1,695255,505
participant_30_B,3,test,R,294,3,620,550,R,1,<rshift>,1,1,696255,493
participant_30_B,3,test,R,295,2,820,350,P,0,NONE,0,1,697254,951
participant_30_B,3,test,R,296,4,820,550,R,1,<rshift>,1,1,698254,427
participant_30_B,3,test,R,297,1,620,350,R,1,<rshift>,1,1,699255,400
participant_30_B,3,test,R,298,2,820,350,P,0,NONE,0,1,700257,950
participant_30_B,3,test,R,299,3,620,550,R,1,<rshift>,1,1,701255,400
participant_30_B,3,test,R,300,2,820,350,R,1,<rshift>,1,1,702256,443
