subnum,block,type,correctresponse,trial,choice,x,y,stim,present,response,responded,corr,starttime,rt
CONTROL_TS_4B_G,0,practice,P,1,1,656,391,P,1,<rshift>,1,1,113720,748
CONTROL_TS_4B_G,0,practice,P,2,4,856,591,P,1,<rshift>,1,1,114680,537
CONTROL_TS_4B_G,0,practice,P,3,3,656,591,P,1,<rshift>,1,1,115680,393
CONTROL_TS_4B_G,0,practice,P,4,4,856,591,P,1,<rshift>,1,1,116680,310
CONTROL_TS_4B_G,0,practice,P,5,1,656,391,R,0,<rshift>,1,0,117680,307
CONTROL_TS_4B_G,0,practice,P,6,1,656,391,P,1,<rshift>,1,1,119072,636
CONTROL_TS_4B_G,0,practice,P,7,2,856,391,R,0,NONE,0,1,119730,950
CONTROL_TS_4B_G,0,practice,P,8,4,856,591,P,1,<rshift>,1,1,120701,382
CONTROL_TS_4B_G,0,practice,P,9,1,656,391,P,1,<rshift>,1,1,121680,408
CONTROL_TS_4B_G,0,practice,P,10,2,856,391,P,1,<rshift>,1,1,122680,386
CONTROL_TS_4B_G,1,test,P,1,2,856,391,P,1,<rshift>,1,1,132637,644
CONTROL_TS_4B_G,1,test,P,2,2,856,391,P,1,<rshift>,1,1,133636,357
CONTROL_TS_4B_G,1,test,P,3,4,856,591,P,1,<rshift>,1,1,134635,406
CONTROL_TS_4B_G,1,test,P,4,3,656,591,P,1,<rshift>,1,1,135636,378
CONTROL_TS_4B_G,1,test,P,5,4,856,591,P,1,<rshift>,1,1,136636,339
CONTROL_TS_4B_G,1,test,P,6,4,856,591,P,1,<rshift>,1,1,137636,344
CONTROL_TS_4B_G,1,test,P,7,3,656,591,P,1,<rshift>,1,1,138636,319
CONTROL_TS_4B_G,1,test,P,8,3,656,591,P,1,<rshift>,1,1,139636,341
CONTROL_TS_4B_G,1,test,P,9,1,656,391,P,1,<rshift>,1,1,140636,466
CONTROL_TS_4B_G,1,test,P,10,3,656,591,R,0,<rshift>,1,0,141636,312
CONTROL_TS_4B_G,1,test,P,11,1,656,391,P,1,<rshift>,1,1,142636,343
CONTROL_TS_4B_G,1,test,P,12,1,656,391,P,1,<rshift>,1,1,143636,347
CONTROL_TS_4B_G,1,test,P,13,1,656,391,P,1,<rshift>,1,1,144636,325
CONTROL_TS_4B_G,1,test,P,14,1,656,391,R,0,<rshift>,1,0,145635,320
CONTROL_TS_4B_G,1,test,P,15,4,856,591,P,1,<rshift>,1,1,146636,398
CONTROL_TS_4B_G,1,test,P,16,4,856,591,P,1,<rshift>,1,1,147636,543
CONTROL_TS_4B_G,1,test,P,17,2,856,391,R,0,NONE,0,1,148636,950
CONTROL_TS_4B_G,1,test,P,18,2,856,391,P,1,<rshift>,1,1,149635,333
CONTROL_TS_4B_G,1,test,P,19,4,856,591,R,0,<rshift>,1,0,150636,340
CONTROL_TS_4B_G,1,test,P,20,3,656,591,P,1,<rshift>,1,1,151635,416
CONTROL_TS_4B_G,1,test,P,21,3,656,591,P,1,<rshift>,1,1,152636,458
CONTROL_TS_4B_G,1,test,P,22,3,656,591,P,1,<rshift>,1,1,153636,377
CONTROL_TS_4B_G,1,test,P,23,4,856,591,P,1,<rshift>,1,1,154637,378
CONTROL_TS_4B_G,1,test,P,24,1,656,391,P,1,<rshift>,1,1,155636,357
CONTROL_TS_4B_G,1,test,P,25,3,656,591,P,1,<rshift>,1,1,156636,348
CONTROL_TS_4B_G,1,test,P,26,2,856,391,P,1,<rshift>,1,1,157636,332
CONTROL_TS_4B_G,1,test,P,27,2,856,391,P,1,<rshift>,1,1,158635,430
CONTROL_TS_4B_G,1,test,P,28,1,656,391,R,0,<rshift>,1,0,159636,322
CONTROL_TS_4B_G,1,test,P,29,4,856,591,P,1,<rshift>,1,1,160636,334
CONTROL_TS_4B_G,1,test,P,30,3,656,591,R,0,NONE,0,1,161635,950
CONTROL_TS_4B_G,1,test,P,31,1,656,391,P,1,<rshift>,1,1,162636,368
CONTROL_TS_4B_G,1,test,P,32,1,656,391,P,1,<rshift>,1,1,163636,352
CONTROL_TS_4B_G,1,test,P,33,3,656,591,P,1,<rshift>,1,1,164635,522
CONTROL_TS_4B_G,1,test,P,34,3,656,591,P,1,<rshift>,1,1,165636,340
CONTROL_TS_4B_G,1,test,P,35,4,856,591,R,0,<rshift>,1,0,166636,282
CONTROL_TS_4B_G,1,test,P,36,2,856,391,R,0,<rshift>,1,0,167636,428
CONTROL_TS_4B_G,1,test,P,37,4,856,591,P,1,<rshift>,1,1,168636,729
CONTROL_TS_4B_G,1,test,P,38,4,856,591,P,1,<rshift>,1,1,169636,452
CONTROL_TS_4B_G,1,test,P,39,2,856,391,P,1,<rshift>,1,1,170636,522
CONTROL_TS_4B_G,1,test,P,40,1,656,391,P,1,<rshift>,1,1,171636,363
CONTROL_TS_4B_G,1,test,P,41,2,856,391,R,0,NONE,0,1,172636,950
CONTROL_TS_4B_G,1,test,P,42,2,856,391,P,1,<rshift>,1,1,173636,376
CONTROL_TS_4B_G,1,test,P,43,1,656,391,P,1,<rshift>,1,1,174636,393
CONTROL_TS_4B_G,1,test,P,44,3,656,591,P,1,<rshift>,1,1,175636,355
CONTROL_TS_4B_G,1,test,P,45,1,656,391,P,1,<rshift>,1,1,176636,363
CONTROL_TS_4B_G,1,test,P,46,1,656,391,P,1,<rshift>,1,1,177636,560
CONTROL_TS_4B_G,1,test,P,47,4,856,591,P,1,<rshift>,1,1,178636,353
CONTROL_TS_4B_G,1,test,P,48,2,856,391,P,1,<rshift>,1,1,179635,312
CONTROL_TS_4B_G,1,test,P,49,4,856,591,P,1,<rshift>,1,1,180636,319
CONTROL_TS_4B_G,1,test,P,50,2,856,391,P,1,<rshift>,1,1,181636,405
CONTROL_TS_4B_G,1,test,P,51,3,656,591,P,1,<rshift>,1,1,182635,332
CONTROL_TS_4B_G,1,test,P,52,3,656,591,P,1,<rshift>,1,1,183636,325
CONTROL_TS_4B_G,1,test,P,53,4,856,591,P,1,<rshift>,1,1,184636,372
CONTROL_TS_4B_G,1,test,P,54,1,656,391,P,1,<rshift>,1,1,185636,337
CONTROL_TS_4B_G,1,test,P,55,3,656,591,R,0,<rshift>,1,0,186636,336
CONTROL_TS_4B_G,1,test,P,56,1,656,391,P,1,<rshift>,1,1,187636,350
CONTROL_TS_4B_G,1,test,P,57,4,856,591,R,0,<rshift>,1,0,188636,342
CONTROL_TS_4B_G,1,test,P,58,1,656,391,P,1,<rshift>,1,1,189636,426
CONTROL_TS_4B_G,1,test,P,59,4,856,591,P,1,<rshift>,1,1,190636,363
CONTROL_TS_4B_G,1,test,P,60,4,856,591,P,1,<rshift>,1,1,191636,390
CONTROL_TS_4B_G,1,test,P,61,1,656,391,P,1,<rshift>,1,1,192637,313
CONTROL_TS_4B_G,1,test,P,62,1,656,391,R,0,<rshift>,1,0,193636,327
CONTROL_TS_4B_G,1,test,P,63,4,856,591,P,1,<rshift>,1,1,194635,442
CONTROL_TS_4B_G,1,test,P,64,2,856,391,P,1,<rshift>,1,1,195635,375
CONTROL_TS_4B_G,1,test,P,65,3,656,591,P,1,<rshift>,1,1,196635,395
CONTROL_TS_4B_G,1,test,P,66,2,856,391,P,1,<rshift>,1,1,197636,354
CONTROL_TS_4B_G,1,test,P,67,2,856,391,P,1,<rshift>,1,1,198636,483
CONTROL_TS_4B_G,1,test,P,68,1,656,391,R,0,NONE,0,1,199635,950
CONTROL_TS_4B_G,1,test,P,69,2,856,391,P,1,<rshift>,1,1,200635,374
CONTROL_TS_4B_G,1,test,P,70,3,656,591,P,1,<rshift>,1,1,201636,538
CONTROL_TS_4B_G,1,test,P,71,3,656,591,P,1,<rshift>,1,1,202635,369
CONTROL_TS_4B_G,1,test,P,72,2,856,391,P,1,<rshift>,1,1,203636,399
CONTROL_TS_4B_G,1,test,P,73,3,656,591,P,1,<rshift>,1,1,204636,379
CONTROL_TS_4B_G,1,test,P,74,4,856,591,P,1,<rshift>,1,1,205636,327
CONTROL_TS_4B_G,1,test,P,75,2,856,391,P,1,<rshift>,1,1,206635,361
CONTROL_TS_4B_G,1,test,P,76,3,656,591,P,1,<rshift>,1,1,207636,399
CONTROL_TS_4B_G,1,test,P,77,4,856,591,P,1,<rshift>,1,1,208636,327
CONTROL_TS_4B_G,1,test,P,78,2,856,391,R,0,<rshift>,1,0,209635,333
CONTROL_TS_4B_G,1,test,P,79,4,856,591,P,1,<rshift>,1,1,210637,521
CONTROL_TS_4B_G,1,test,P,80,4,856,591,R,0,NONE,0,1,211636,950
CONTROL_TS_4B_G,1,test,P,81,3,656,591,P,1,<rshift>,1,1,212635,393
CONTROL_TS_4B_G,1,test,P,82,4,856,591,P,1,<rshift>,1,1,213636,391
CONTROL_TS_4B_G,1,test,P,83,3,656,591,P,1,<rshift>,1,1,214636,367
CONTROL_TS_4B_G,1,test,P,84,4,856,591,P,1,<rshift>,1,1,215635,437
CONTROL_TS_4B_G,1,test,P,85,2,856,391,P,1,<rshift>,1,1,216636,398
CONTROL_TS_4B_G,1,test,P,86,1,656,391,R,0,<rshift>,1,0,217635,374
CONTROL_TS_4B_G,1,test,P,87,2,856,391,P,1,<rshift>,1,1,218636,483
CONTROL_TS_4B_G,1,test,P,88,1,656,391,P,1,<rshift>,1,1,219636,382
CONTROL_TS_4B_G,1,test,P,89,2,856,391,P,1,<rshift>,1,1,220636,312
CONTROL_TS_4B_G,1,test,P,90,2,856,391,R,0,<rshift>,1,0,221635,325
CONTROL_TS_4B_G,1,test,P,91,2,856,391,R,0,NONE,0,1,222637,950
CONTROL_TS_4B_G,1,test,P,92,1,656,391,P,1,<rshift>,1,1,223636,396
CONTROL_TS_4B_G,1,test,P,93,1,656,391,R,0,<rshift>,1,0,224636,396
CONTROL_TS_4B_G,1,test,P,94,2,856,391,P,1,<rshift>,1,1,225636,522
CONTROL_TS_4B_G,1,test,P,95,1,656,391,P,1,<rshift>,1,1,226636,361
CONTROL_TS_4B_G,1,test,P,96,1,656,391,P,1,<rshift>,1,1,227636,451
CONTROL_TS_4B_G,1,test,P,97,1,656,391,P,1,<rshift>,1,1,228636,369
CONTROL_TS_4B_G,1,test,P,98,4,856,591,R,0,NONE,0,1,229635,950
CONTROL_TS_4B_G,1,test,P,99,4,856,591,P,1,<rshift>,1,1,230636,390
CONTROL_TS_4B_G,1,test,P,100,2,856,391,P,1,<rshift>,1,1,231636,357
CONTROL_TS_4B_G,1,test,P,101,3,656,591,P,1,<rshift>,1,1,232635,355
CONTROL_TS_4B_G,1,test,P,102,4,856,591,R,0,NONE,0,1,233636,950
CONTROL_TS_4B_G,1,test,P,103,2,856,391,R,0,<rshift>,1,0,234636,374
CONTROL_TS_4B_G,1,test,P,104,4,856,591,P,1,<rshift>,1,1,235636,522
CONTROL_TS_4B_G,1,test,P,105,2,856,391,R,0,NONE,0,1,236636,950
CONTROL_TS_4B_G,1,test,P,106,3,656,591,P,1,<rshift>,1,1,237636,431
CONTROL_TS_4B_G,1,test,P,107,4,856,591,R,0,NONE,0,1,238635,950
CONTROL_TS_4B_G,1,test,P,108,2,856,391,P,1,<rshift>,1,1,239635,340
CONTROL_TS_4B_G,1,test,P,109,1,656,391,P,1,<rshift>,1,1,240636,346
CONTROL_TS_4B_G,1,test,P,110,1,656,391,R,0,<rshift>,1,0,241635,362
CONTROL_TS_4B_G,1,test,P,111,2,856,391,R,0,NONE,0,1,242635,950
CONTROL_TS_4B_G,1,test,P,112,4,856,591,P,1,<rshift>,1,1,243637,459
CONTROL_TS_4B_G,1,test,P,113,4,856,591,P,1,<rshift>,1,1,244636,477
CONTROL_TS_4B_G,1,test,P,114,3,656,591,P,1,<rshift>,1,1,245637,490
CONTROL_TS_4B_G,1,test,P,115,4,856,591,P,1,<rshift>,1,1,246636,434
CONTROL_TS_4B_G,1,test,P,116,1,656,391,P,1,<rshift>,1,1,247637,490
CONTROL_TS_4B_G,1,test,P,117,1,656,391,P,1,<rshift>,1,1,248636,358
CONTROL_TS_4B_G,1,test,P,118,2,856,391,P,1,<rshift>,1,1,249636,548
CONTROL_TS_4B_G,1,test,P,119,3,656,591,P,1,<rshift>,1,1,250636,358
CONTROL_TS_4B_G,1,test,P,120,1,656,391,R,0,NONE,0,1,251636,950
CONTROL_TS_4B_G,1,test,P,121,3,656,591,P,1,<rshift>,1,1,252635,522
CONTROL_TS_4B_G,1,test,P,122,4,856,591,P,1,<rshift>,1,1,253636,399
CONTROL_TS_4B_G,1,test,P,123,1,656,391,R,0,<rshift>,1,0,254636,327
CONTROL_TS_4B_G,1,test,P,124,3,656,591,R,0,NONE,0,1,255636,950
CONTROL_TS_4B_G,1,test,P,125,2,856,391,R,0,NONE,0,1,256636,950
CONTROL_TS_4B_G,1,test,P,126,1,656,391,P,1,NONE,0,0,257635,951
CONTROL_TS_4B_G,1,test,P,127,2,856,391,P,1,<rshift>,1,1,258636,352
CONTROL_TS_4B_G,1,test,P,128,2,856,391,P,1,<rshift>,1,1,259636,398
CONTROL_TS_4B_G,1,test,P,129,2,856,391,P,1,<rshift>,1,1,260636,472
CONTROL_TS_4B_G,1,test,P,130,4,856,591,P,1,<rshift>,1,1,261636,408
CONTROL_TS_4B_G,1,test,P,131,1,656,391,R,0,NONE,0,1,262636,950
CONTROL_TS_4B_G,1,test,P,132,2,856,391,P,1,<rshift>,1,1,263636,318
CONTROL_TS_4B_G,1,test,P,133,1,656,391,P,1,<rshift>,1,1,264636,497
CONTROL_TS_4B_G,1,test,P,134,1,656,391,P,1,<rshift>,1,1,265635,325
CONTROL_TS_4B_G,1,test,P,135,1,656,391,P,1,<rshift>,1,1,266635,402
CONTROL_TS_4B_G,1,test,P,136,3,656,591,R,0,<rshift>,1,0,267637,385
CONTROL_TS_4B_G,1,test,P,137,4,856,591,P,1,<rshift>,1,1,268636,417
CONTROL_TS_4B_G,1,test,P,138,4,856,591,P,1,<rshift>,1,1,269635,455
CONTROL_TS_4B_G,1,test,P,139,2,856,391,P,1,<rshift>,1,1,270636,381
CONTROL_TS_4B_G,1,test,P,140,2,856,391,P,1,<rshift>,1,1,271635,326
CONTROL_TS_4B_G,1,test,P,141,4,856,591,P,1,<rshift>,1,1,272636,408
CONTROL_TS_4B_G,1,test,P,142,3,656,591,P,1,<rshift>,1,1,273636,370
CONTROL_TS_4B_G,1,test,P,143,1,656,391,R,0,<rshift>,1,0,274636,316
CONTROL_TS_4B_G,1,test,P,144,3,656,591,P,1,<rshift>,1,1,275635,703
CONTROL_TS_4B_G,1,test,P,145,3,656,591,P,1,<rshift>,1,1,276636,394
CONTROL_TS_4B_G,1,test,P,146,1,656,391,P,1,<rshift>,1,1,277636,427
CONTROL_TS_4B_G,1,test,P,147,1,656,391,R,0,<rshift>,1,0,278635,417
CONTROL_TS_4B_G,1,test,P,148,4,856,591,R,0,NONE,0,1,279636,950
CONTROL_TS_4B_G,1,test,P,149,3,656,591,R,0,NONE,0,1,280637,950
CONTROL_TS_4B_G,1,test,P,150,2,856,391,P,1,<rshift>,1,1,281635,378
CONTROL_TS_4B_G,1,test,P,151,2,856,391,P,1,<rshift>,1,1,282636,349
CONTROL_TS_4B_G,1,test,P,152,3,656,591,P,1,<rshift>,1,1,283635,400
CONTROL_TS_4B_G,1,test,P,153,1,656,391,P,1,<rshift>,1,1,284636,383
CONTROL_TS_4B_G,1,test,P,154,3,656,591,P,1,<rshift>,1,1,285635,353
CONTROL_TS_4B_G,1,test,P,155,1,656,391,P,1,<rshift>,1,1,286636,458
CONTROL_TS_4B_G,1,test,P,156,1,656,391,P,1,<rshift>,1,1,287636,405
CONTROL_TS_4B_G,1,test,P,157,2,856,391,P,1,<rshift>,1,1,288635,349
CONTROL_TS_4B_G,1,test,P,158,3,656,591,P,1,<rshift>,1,1,289636,347
CONTROL_TS_4B_G,1,test,P,159,2,856,391,P,1,<rshift>,1,1,290637,337
CONTROL_TS_4B_G,1,test,P,160,3,656,591,P,1,<rshift>,1,1,291635,367
CONTROL_TS_4B_G,1,test,P,161,4,856,591,P,1,<rshift>,1,1,292635,454
CONTROL_TS_4B_G,1,test,P,162,3,656,591,R,0,NONE,0,1,293636,950
CONTROL_TS_4B_G,1,test,P,163,1,656,391,P,1,<rshift>,1,1,294636,350
CONTROL_TS_4B_G,1,test,P,164,3,656,591,P,1,<rshift>,1,1,295636,455
CONTROL_TS_4B_G,1,test,P,165,4,856,591,P,1,<rshift>,1,1,296636,415
CONTROL_TS_4B_G,1,test,P,166,3,656,591,P,1,<rshift>,1,1,297636,424
CONTROL_TS_4B_G,1,test,P,167,1,656,391,P,1,<rshift>,1,1,298636,405
CONTROL_TS_4B_G,1,test,P,168,3,656,591,P,1,<rshift>,1,1,299635,366
CONTROL_TS_4B_G,1,test,P,169,2,856,391,R,0,NONE,0,1,300636,950
CONTROL_TS_4B_G,1,test,P,170,1,656,391,R,0,<rshift>,1,0,301635,343
CONTROL_TS_4B_G,1,test,P,171,4,856,591,P,1,<rshift>,1,1,302635,446
CONTROL_TS_4B_G,1,test,P,172,4,856,591,P,1,<rshift>,1,1,303636,384
CONTROL_TS_4B_G,1,test,P,173,1,656,391,P,1,<rshift>,1,1,304636,398
CONTROL_TS_4B_G,1,test,P,174,1,656,391,P,1,<rshift>,1,1,305635,435
CONTROL_TS_4B_G,1,test,P,175,4,856,591,P,1,<rshift>,1,1,306636,367
CONTROL_TS_4B_G,1,test,P,176,1,656,391,P,1,<rshift>,1,1,307636,400
CONTROL_TS_4B_G,1,test,P,177,1,656,391,P,1,<rshift>,1,1,308636,384
CONTROL_TS_4B_G,1,test,P,178,1,656,391,P,1,<rshift>,1,1,309637,399
CONTROL_TS_4B_G,1,test,P,179,4,856,591,P,1,<rshift>,1,1,310636,412
CONTROL_TS_4B_G,1,test,P,180,1,656,391,R,0,NONE,0,1,311636,950
CONTROL_TS_4B_G,1,test,P,181,1,656,391,P,1,<rshift>,1,1,312636,461
CONTROL_TS_4B_G,1,test,P,182,1,656,391,P,1,<rshift>,1,1,313636,442
CONTROL_TS_4B_G,1,test,P,183,1,656,391,P,1,<rshift>,1,1,314635,332
CONTROL_TS_4B_G,1,test,P,184,3,656,591,R,0,NONE,0,1,315636,950
CONTROL_TS_4B_G,1,test,P,185,2,856,391,P,1,<rshift>,1,1,316636,402
CONTROL_TS_4B_G,1,test,P,186,1,656,391,R,0,<rshift>,1,0,317636,331
CONTROL_TS_4B_G,1,test,P,187,2,856,391,P,1,<rshift>,1,1,318636,467
CONTROL_TS_4B_G,1,test,P,188,3,656,591,R,0,NONE,0,1,319636,950
CONTROL_TS_4B_G,1,test,P,189,4,856,591,P,1,<rshift>,1,1,320635,361
CONTROL_TS_4B_G,1,test,P,190,3,656,591,P,1,<rshift>,1,1,321636,394
CONTROL_TS_4B_G,1,test,P,191,1,656,391,P,1,<rshift>,1,1,322635,379
CONTROL_TS_4B_G,1,test,P,192,4,856,591,P,1,<rshift>,1,1,323636,448
CONTROL_TS_4B_G,1,test,P,193,4,856,591,P,1,<rshift>,1,1,324636,474
CONTROL_TS_4B_G,1,test,P,194,1,656,391,R,0,<rshift>,1,0,325636,327
CONTROL_TS_4B_G,1,test,P,195,2,856,391,P,1,<rshift>,1,1,326636,480
CONTROL_TS_4B_G,1,test,P,196,1,656,391,P,1,<rshift>,1,1,327636,348
CONTROL_TS_4B_G,1,test,P,197,1,656,391,P,1,<rshift>,1,1,328635,459
CONTROL_TS_4B_G,1,test,P,198,4,856,591,P,1,<rshift>,1,1,329636,376
CONTROL_TS_4B_G,1,test,P,199,4,856,591,P,1,<rshift>,1,1,330635,360
CONTROL_TS_4B_G,1,test,P,200,3,656,591,P,1,<rshift>,1,1,331636,313
CONTROL_TS_4B_G,1,test,P,201,3,656,591,P,1,<rshift>,1,1,332636,349
CONTROL_TS_4B_G,1,test,P,202,1,656,391,P,1,<rshift>,1,1,333635,306
CONTROL_TS_4B_G,1,test,P,203,4,856,591,R,0,<rshift>,1,0,334636,304
CONTROL_TS_4B_G,1,test,P,204,2,856,391,P,1,<rshift>,1,1,335636,465
CONTROL_TS_4B_G,1,test,P,205,3,656,591,R,0,NONE,0,1,336635,950
CONTROL_TS_4B_G,1,test,P,206,2,856,391,P,1,<rshift>,1,1,337636,367
CONTROL_TS_4B_G,1,test,P,207,2,856,391,P,1,<rshift>,1,1,338635,382
CONTROL_TS_4B_G,1,test,P,208,1,656,391,P,1,<rshift>,1,1,339636,323
CONTROL_TS_4B_G,1,test,P,209,3,656,591,P,1,<rshift>,1,1,340636,410
CONTROL_TS_4B_G,1,test,P,210,4,856,591,P,1,<rshift>,1,1,341635,341
CONTROL_TS_4B_G,1,test,P,211,4,856,591,R,0,<rshift>,1,0,342636,365
CONTROL_TS_4B_G,1,test,P,212,4,856,591,R,0,NONE,0,1,343635,951
CONTROL_TS_4B_G,1,test,P,213,2,856,391,P,1,<rshift>,1,1,344636,316
CONTROL_TS_4B_G,1,test,P,214,2,856,391,R,0,NONE,0,1,345635,950
CONTROL_TS_4B_G,1,test,P,215,4,856,591,P,1,<rshift>,1,1,346636,398
CONTROL_TS_4B_G,1,test,P,216,3,656,591,P,1,<rshift>,1,1,347636,400
CONTROL_TS_4B_G,1,test,P,217,3,656,591,P,1,<rshift>,1,1,348637,394
CONTROL_TS_4B_G,1,test,P,218,1,656,391,P,1,<rshift>,1,1,349636,425
CONTROL_TS_4B_G,1,test,P,219,1,656,391,R,0,<rshift>,1,0,350636,402
CONTROL_TS_4B_G,1,test,P,220,2,856,391,R,0,NONE,0,1,351635,950
CONTROL_TS_4B_G,1,test,P,221,2,856,391,P,1,<rshift>,1,1,352636,522
CONTROL_TS_4B_G,1,test,P,222,4,856,591,P,1,<rshift>,1,1,353636,378
CONTROL_TS_4B_G,1,test,P,223,4,856,591,P,1,<rshift>,1,1,354636,460
CONTROL_TS_4B_G,1,test,P,224,3,656,591,P,1,<rshift>,1,1,355636,411
CONTROL_TS_4B_G,1,test,P,225,1,656,391,P,1,<rshift>,1,1,356636,412
CONTROL_TS_4B_G,1,test,P,226,4,856,591,P,1,<rshift>,1,1,357636,346
CONTROL_TS_4B_G,1,test,P,227,1,656,391,P,1,<rshift>,1,1,358635,327
CONTROL_TS_4B_G,1,test,P,228,3,656,591,P,1,<rshift>,1,1,359636,369
CONTROL_TS_4B_G,1,test,P,229,1,656,391,R,0,NONE,0,1,360635,950
CONTROL_TS_4B_G,1,test,P,230,1,656,391,P,1,NONE,0,0,361636,950
CONTROL_TS_4B_G,1,test,P,231,2,856,391,P,1,<rshift>,1,1,362635,310
CONTROL_TS_4B_G,1,test,P,232,4,856,591,P,1,<rshift>,1,1,363636,389
CONTROL_TS_4B_G,1,test,P,233,4,856,591,P,1,<rshift>,1,1,364636,372
CONTROL_TS_4B_G,1,test,P,234,3,656,591,R,0,<rshift>,1,0,365636,377
CONTROL_TS_4B_G,1,test,P,235,2,856,391,P,1,<rshift>,1,1,366636,552
CONTROL_TS_4B_G,1,test,P,236,4,856,591,P,1,<rshift>,1,1,367635,429
CONTROL_TS_4B_G,1,test,P,237,1,656,391,P,1,<rshift>,1,1,368635,377
CONTROL_TS_4B_G,1,test,P,238,1,656,391,P,1,<rshift>,1,1,369636,394
CONTROL_TS_4B_G,1,test,P,239,3,656,591,P,1,<rshift>,1,1,370636,380
CONTROL_TS_4B_G,1,test,P,240,4,856,591,P,1,<rshift>,1,1,371636,343
CONTROL_TS_4B_G,1,test,P,241,4,856,591,P,1,<rshift>,1,1,372636,355
CONTROL_TS_4B_G,1,test,P,242,3,656,591,P,1,<rshift>,1,1,373635,368
CONTROL_TS_4B_G,1,test,P,243,1,656,391,P,1,<rshift>,1,1,374635,359
CONTROL_TS_4B_G,1,test,P,244,4,856,591,P,1,<rshift>,1,1,375636,366
CONTROL_TS_4B_G,1,test,P,245,2,856,391,P,1,<rshift>,1,1,376636,376
CONTROL_TS_4B_G,1,test,P,246,1,656,391,P,1,<rshift>,1,1,377636,324
CONTROL_TS_4B_G,1,test,P,247,3,656,591,P,1,<rshift>,1,1,378636,333
CONTROL_TS_4B_G,1,test,P,248,4,856,591,P,1,<rshift>,1,1,379636,449
CONTROL_TS_4B_G,1,test,P,249,2,856,391,P,1,<rshift>,1,1,380635,369
CONTROL_TS_4B_G,1,test,P,250,3,656,591,R,0,<rshift>,1,0,381636,374
CONTROL_TS_4B_G,1,test,P,251,2,856,391,P,1,<rshift>,1,1,382635,416
CONTROL_TS_4B_G,1,test,P,252,4,856,591,P,1,<rshift>,1,1,383636,436
CONTROL_TS_4B_G,1,test,P,253,1,656,391,P,1,<rshift>,1,1,384636,360
CONTROL_TS_4B_G,1,test,P,254,1,656,391,R,0,<rshift>,1,0,385635,365
CONTROL_TS_4B_G,1,test,P,255,1,656,391,P,1,<rshift>,1,1,386636,684
CONTROL_TS_4B_G,1,test,P,256,2,856,391,P,1,<rshift>,1,1,387636,374
CONTROL_TS_4B_G,1,test,P,257,1,656,391,P,1,<rshift>,1,1,388635,334
CONTROL_TS_4B_G,1,test,P,258,2,856,391,P,1,<rshift>,1,1,389636,334
CONTROL_TS_4B_G,1,test,P,259,1,656,391,P,1,<rshift>,1,1,390636,326
CONTROL_TS_4B_G,1,test,P,260,2,856,391,P,1,<rshift>,1,1,391636,324
CONTROL_TS_4B_G,1,test,P,261,4,856,591,P,1,<rshift>,1,1,392636,319
CONTROL_TS_4B_G,1,test,P,262,1,656,391,P,1,<rshift>,1,1,393636,317
CONTROL_TS_4B_G,1,test,P,263,4,856,591,P,1,<rshift>,1,1,394636,414
CONTROL_TS_4B_G,1,test,P,264,4,856,591,P,1,<rshift>,1,1,395635,342
CONTROL_TS_4B_G,1,test,P,265,4,856,591,P,1,<rshift>,1,1,396636,341
CONTROL_TS_4B_G,1,test,P,266,2,856,391,R,0,<rshift>,1,0,397635,361
CONTROL_TS_4B_G,1,test,P,267,2,856,391,P,1,<rshift>,1,1,398636,407
CONTROL_TS_4B_G,1,test,P,268,4,856,591,R,0,NONE,0,1,399635,951
CONTROL_TS_4B_G,1,test,P,269,2,856,391,P,1,<rshift>,1,1,400636,364
CONTROL_TS_4B_G,1,test,P,270,3,656,591,P,1,<rshift>,1,1,401635,345
CONTROL_TS_4B_G,1,test,P,271,2,856,391,P,1,<rshift>,1,1,402635,319
CONTROL_TS_4B_G,1,test,P,272,4,856,591,P,1,<rshift>,1,1,403635,330
CONTROL_TS_4B_G,1,test,P,273,2,856,391,R,0,NONE,0,1,404636,950
CONTROL_TS_4B_G,1,test,P,274,1,656,391,P,1,<rshift>,1,1,405635,355
CONTROL_TS_4B_G,1,test,P,275,3,656,591,P,1,<rshift>,1,1,406635,412
CONTROL_TS_4B_G,1,test,P,276,1,656,391,P,1,<rshift>,1,1,407635,382
CONTROL_TS_4B_G,1,test,P,277,4,856,591,P,1,<rshift>,1,1,408635,410
CONTROL_TS_4B_G,1,test,P,278,4,856,591,P,1,<rshift>,1,1,409635,348
CONTROL_TS_4B_G,1,test,P,279,1,656,391,P,1,<rshift>,1,1,410635,334
CONTROL_TS_4B_G,1,test,P,280,1,656,391,P,1,<rshift>,1,1,411636,336
CONTROL_TS_4B_G,1,test,P,281,3,656,591,P,1,<rshift>,1,1,412635,375
CONTROL_TS_4B_G,1,test,P,282,1,656,391,P,1,<rshift>,1,1,413636,351
CONTROL_TS_4B_G,1,test,P,283,3,656,591,P,1,<rshift>,1,1,414635,348
CONTROL_TS_4B_G,1,test,P,284,4,856,591,P,1,<rshift>,1,1,415636,418
CONTROL_TS_4B_G,1,test,P,285,1,656,391,P,1,<rshift>,1,1,416635,340
CONTROL_TS_4B_G,1,test,P,286,4,856,591,R,0,<rshift>,1,0,417636,300
CONTROL_TS_4B_G,1,test,P,287,1,656,391,P,1,<rshift>,1,1,418636,292
CONTROL_TS_4B_G,1,test,P,288,1,656,391,P,1,<rshift>,1,1,419635,339
CONTROL_TS_4B_G,1,test,P,289,1,656,391,R,0,<rshift>,1,0,420635,393
CONTROL_TS_4B_G,1,test,P,290,3,656,591,P,1,<rshift>,1,1,421636,445
CONTROL_TS_4B_G,1,test,P,291,4,856,591,P,1,<rshift>,1,1,422635,355
CONTROL_TS_4B_G,1,test,P,292,3,656,591,P,1,<rshift>,1,1,423636,379
CONTROL_TS_4B_G,1,test,P,293,4,856,591,P,1,<rshift>,1,1,424636,392
CONTROL_TS_4B_G,1,test,P,294,3,656,591,P,1,<rshift>,1,1,425636,381
CONTROL_TS_4B_G,1,test,P,295,2,856,391,P,1,<rshift>,1,1,426636,397
CONTROL_TS_4B_G,1,test,P,296,4,856,591,P,1,<rshift>,1,1,427636,364
CONTROL_TS_4B_G,1,test,P,297,3,656,591,P,1,<rshift>,1,1,428636,353
CONTROL_TS_4B_G,1,test,P,298,2,856,391,P,1,<rshift>,1,1,429636,311
CONTROL_TS_4B_G,1,test,P,299,4,856,591,P,1,<rshift>,1,1,430636,343
CONTROL_TS_4B_G,1,test,P,300,1,656,391,P,1,<rshift>,1,1,431635,324
CONTROL_TS_4B_G,2,practice,R,1,2,856,391,R,1,<rshift>,1,1,454566,559
CONTROL_TS_4B_G,2,practice,R,2,4,856,591,P,0,<rshift>,1,0,455565,324
CONTROL_TS_4B_G,2,practice,R,3,3,656,591,R,1,<rshift>,1,1,456974,354
CONTROL_TS_4B_G,2,practice,R,4,1,656,391,P,0,NONE,0,1,457565,950
CONTROL_TS_4B_G,2,practice,R,5,3,656,591,R,1,<rshift>,1,1,458564,339
CONTROL_TS_4B_G,2,practice,R,6,1,656,391,R,1,<rshift>,1,1,459565,336
CONTROL_TS_4B_G,2,practice,R,7,1,656,391,R,1,<rshift>,1,1,460565,335
CONTROL_TS_4B_G,2,practice,R,8,1,656,391,R,1,<rshift>,1,1,461565,325
CONTROL_TS_4B_G,2,practice,R,9,1,656,391,R,1,<rshift>,1,1,462565,328
CONTROL_TS_4B_G,2,practice,R,10,3,656,591,R,1,<rshift>,1,1,463565,323
CONTROL_TS_4B_G,3,test,R,1,3,656,591,R,1,<rshift>,1,1,474500,484
CONTROL_TS_4B_G,3,test,R,2,4,856,591,R,1,<rshift>,1,1,475499,324
CONTROL_TS_4B_G,3,test,R,3,1,656,391,R,1,<rshift>,1,1,476500,282
CONTROL_TS_4B_G,3,test,R,4,1,656,391,R,1,<rshift>,1,1,477499,349
CONTROL_TS_4B_G,3,test,R,5,1,656,391,P,0,<rshift>,1,0,478499,355
CONTROL_TS_4B_G,3,test,R,6,4,856,591,P,0,<rshift>,1,0,479499,351
CONTROL_TS_4B_G,3,test,R,7,2,856,391,R,1,<rshift>,1,1,480499,342
CONTROL_TS_4B_G,3,test,R,8,4,856,591,P,0,<rshift>,1,0,481499,414
CONTROL_TS_4B_G,3,test,R,9,1,656,391,R,1,<rshift>,1,1,482499,358
CONTROL_TS_4B_G,3,test,R,10,2,856,391,R,1,<rshift>,1,1,483499,343
CONTROL_TS_4B_G,3,test,R,11,4,856,591,R,1,<rshift>,1,1,484499,402
CONTROL_TS_4B_G,3,test,R,12,1,656,391,R,1,<rshift>,1,1,485499,311
CONTROL_TS_4B_G,3,test,R,13,2,856,391,R,1,<rshift>,1,1,486499,299
CONTROL_TS_4B_G,3,test,R,14,4,856,591,R,1,<rshift>,1,1,487499,351
CONTROL_TS_4B_G,3,test,R,15,3,656,591,R,1,<rshift>,1,1,488499,380
CONTROL_TS_4B_G,3,test,R,16,1,656,391,R,1,<rshift>,1,1,489499,322
CONTROL_TS_4B_G,3,test,R,17,2,856,391,R,1,<rshift>,1,1,490499,316
CONTROL_TS_4B_G,3,test,R,18,3,656,591,R,1,<rshift>,1,1,491499,314
CONTROL_TS_4B_G,3,test,R,19,4,856,591,R,1,<rshift>,1,1,492501,297
CONTROL_TS_4B_G,3,test,R,20,2,856,391,R,1,<rshift>,1,1,493499,325
CONTROL_TS_4B_G,3,test,R,21,4,856,591,R,1,<rshift>,1,1,494500,358
CONTROL_TS_4B_G,3,test,R,22,4,856,591,R,1,<rshift>,1,1,495499,324
CONTROL_TS_4B_G,3,test,R,23,1,656,391,R,1,<rshift>,1,1,496500,328
CONTROL_TS_4B_G,3,test,R,24,4,856,591,P,0,<rshift>,1,0,497499,296
CONTROL_TS_4B_G,3,test,R,25,1,656,391,R,1,<rshift>,1,1,498499,300
CONTROL_TS_4B_G,3,test,R,26,3,656,591,R,1,<rshift>,1,1,499499,375
CONTROL_TS_4B_G,3,test,R,27,1,656,391,R,1,<rshift>,1,1,500500,331
CONTROL_TS_4B_G,3,test,R,28,3,656,591,P,0,<rshift>,1,0,501499,349
CONTROL_TS_4B_G,3,test,R,29,4,856,591,P,0,NONE,0,1,502499,950
CONTROL_TS_4B_G,3,test,R,30,4,856,591,R,1,<rshift>,1,1,503498,422
CONTROL_TS_4B_G,3,test,R,31,4,856,591,R,1,<rshift>,1,1,504499,363
CONTROL_TS_4B_G,3,test,R,32,4,856,591,P,0,<rshift>,1,0,505499,276
CONTROL_TS_4B_G,3,test,R,33,3,656,591,R,1,<rshift>,1,1,506499,413
CONTROL_TS_4B_G,3,test,R,34,2,856,391,R,1,<rshift>,1,1,507499,356
CONTROL_TS_4B_G,3,test,R,35,2,856,391,R,1,<rshift>,1,1,508499,390
CONTROL_TS_4B_G,3,test,R,36,4,856,591,R,1,<rshift>,1,1,509499,397
CONTROL_TS_4B_G,3,test,R,37,2,856,391,R,1,<rshift>,1,1,510499,397
CONTROL_TS_4B_G,3,test,R,38,4,856,591,R,1,<rshift>,1,1,511499,383
CONTROL_TS_4B_G,3,test,R,39,1,656,391,R,1,<rshift>,1,1,512499,323
CONTROL_TS_4B_G,3,test,R,40,1,656,391,R,1,<rshift>,1,1,513499,352
CONTROL_TS_4B_G,3,test,R,41,3,656,591,R,1,<rshift>,1,1,514498,331
CONTROL_TS_4B_G,3,test,R,42,3,656,591,R,1,<rshift>,1,1,515499,386
CONTROL_TS_4B_G,3,test,R,43,4,856,591,R,1,<rshift>,1,1,516499,310
CONTROL_TS_4B_G,3,test,R,44,2,856,391,R,1,<rshift>,1,1,517499,314
CONTROL_TS_4B_G,3,test,R,45,1,656,391,P,0,<rshift>,1,0,518499,284
CONTROL_TS_4B_G,3,test,R,46,3,656,591,R,1,<rshift>,1,1,519499,306
CONTROL_TS_4B_G,3,test,R,47,3,656,591,P,0,NONE,0,1,520499,950
CONTROL_TS_4B_G,3,test,R,48,3,656,591,P,0,<rshift>,1,0,521499,384
CONTROL_TS_4B_G,3,test,R,49,4,856,591,R,1,<rshift>,1,1,522499,296
CONTROL_TS_4B_G,3,test,R,50,1,656,391,R,1,<rshift>,1,1,523498,377
CONTROL_TS_4B_G,3,test,R,51,3,656,591,R,1,<rshift>,1,1,524499,444
CONTROL_TS_4B_G,3,test,R,52,4,856,591,R,1,<rshift>,1,1,525499,350
CONTROL_TS_4B_G,3,test,R,53,2,856,391,R,1,<rshift>,1,1,526499,386
CONTROL_TS_4B_G,3,test,R,54,2,856,391,R,1,<rshift>,1,1,527499,468
CONTROL_TS_4B_G,3,test,R,55,1,656,391,R,1,<rshift>,1,1,528499,431
CONTROL_TS_4B_G,3,test,R,56,2,856,391,P,0,NONE,0,1,529499,950
CONTROL_TS_4B_G,3,test,R,57,4,856,591,R,1,<rshift>,1,1,530499,522
CONTROL_TS_4B_G,3,test,R,58,3,656,591,R,1,<rshift>,1,1,531499,370
CONTROL_TS_4B_G,3,test,R,59,3,656,591,R,1,<rshift>,1,1,532499,339
CONTROL_TS_4B_G,3,test,R,60,4,856,591,R,1,<rshift>,1,1,533499,360
CONTROL_TS_4B_G,3,test,R,61,4,856,591,R,1,<rshift>,1,1,534499,447
CONTROL_TS_4B_G,3,test,R,62,4,856,591,R,1,<rshift>,1,1,535499,363
CONTROL_TS_4B_G,3,test,R,63,3,656,591,R,1,<rshift>,1,1,536499,356
CONTROL_TS_4B_G,3,test,R,64,1,656,391,R,1,<rshift>,1,1,537499,406
CONTROL_TS_4B_G,3,test,R,65,2,856,391,P,0,NONE,0,1,538499,950
CONTROL_TS_4B_G,3,test,R,66,2,856,391,R,1,<rshift>,1,1,539499,410
CONTROL_TS_4B_G,3,test,R,67,2,856,391,R,1,<rshift>,1,1,540499,350
CONTROL_TS_4B_G,3,test,R,68,2,856,391,R,1,<rshift>,1,1,541498,355
CONTROL_TS_4B_G,3,test,R,69,2,856,391,R,1,<rshift>,1,1,542499,360
CONTROL_TS_4B_G,3,test,R,70,1,656,391,R,1,<rshift>,1,1,543498,426
CONTROL_TS_4B_G,3,test,R,71,4,856,591,R,1,<rshift>,1,1,544499,355
CONTROL_TS_4B_G,3,test,R,72,2,856,391,R,1,<rshift>,1,1,545499,374
CONTROL_TS_4B_G,3,test,R,73,2,856,391,R,1,<rshift>,1,1,546499,320
CONTROL_TS_4B_G,3,test,R,74,1,656,391,R,1,<rshift>,1,1,547498,291
CONTROL_TS_4B_G,3,test,R,75,2,856,391,P,0,<rshift>,1,0,548499,298
CONTROL_TS_4B_G,3,test,R,76,2,856,391,R,1,<rshift>,1,1,549499,522
CONTROL_TS_4B_G,3,test,R,77,1,656,391,R,1,<rshift>,1,1,550499,348
CONTROL_TS_4B_G,3,test,R,78,4,856,591,R,1,<rshift>,1,1,551499,445
CONTROL_TS_4B_G,3,test,R,79,4,856,591,R,1,<rshift>,1,1,552499,334
CONTROL_TS_4B_G,3,test,R,80,1,656,391,P,0,<rshift>,1,0,553499,324
CONTROL_TS_4B_G,3,test,R,81,4,856,591,R,1,<rshift>,1,1,554498,480
CONTROL_TS_4B_G,3,test,R,82,2,856,391,R,1,<rshift>,1,1,555499,416
CONTROL_TS_4B_G,3,test,R,83,3,656,591,R,1,<rshift>,1,1,556499,336
CONTROL_TS_4B_G,3,test,R,84,4,856,591,R,1,<rshift>,1,1,557499,477
CONTROL_TS_4B_G,3,test,R,85,2,856,391,R,1,<rshift>,1,1,558499,323
CONTROL_TS_4B_G,3,test,R,86,4,856,591,P,0,<rshift>,1,0,559499,358
CONTROL_TS_4B_G,3,test,R,87,1,656,391,P,0,<rshift>,1,0,560499,370
CONTROL_TS_4B_G,3,test,R,88,2,856,391,P,0,NONE,0,1,561499,950
CONTROL_TS_4B_G,3,test,R,89,4,856,591,P,0,NONE,0,1,562498,950
CONTROL_TS_4B_G,3,test,R,90,4,856,591,R,1,<rshift>,1,1,563499,725
CONTROL_TS_4B_G,3,test,R,91,3,656,591,P,0,NONE,0,1,564499,950
CONTROL_TS_4B_G,3,test,R,92,3,656,591,R,1,<rshift>,1,1,565499,401
CONTROL_TS_4B_G,3,test,R,93,2,856,391,R,1,<rshift>,1,1,566499,319
CONTROL_TS_4B_G,3,test,R,94,1,656,391,R,1,<rshift>,1,1,567498,360
CONTROL_TS_4B_G,3,test,R,95,1,656,391,P,0,NONE,0,1,568499,950
CONTROL_TS_4B_G,3,test,R,96,2,856,391,P,0,<rshift>,1,0,569498,343
CONTROL_TS_4B_G,3,test,R,97,4,856,591,P,0,NONE,0,1,570499,950
CONTROL_TS_4B_G,3,test,R,98,1,656,391,P,0,NONE,0,1,571498,951
CONTROL_TS_4B_G,3,test,R,99,1,656,391,R,1,<rshift>,1,1,572499,463
CONTROL_TS_4B_G,3,test,R,100,4,856,591,R,1,<rshift>,1,1,573498,451
CONTROL_TS_4B_G,3,test,R,101,2,856,391,R,1,<rshift>,1,1,574499,362
CONTROL_TS_4B_G,3,test,R,102,4,856,591,R,1,<rshift>,1,1,575499,363
CONTROL_TS_4B_G,3,test,R,103,3,656,591,R,1,<rshift>,1,1,576499,349
CONTROL_TS_4B_G,3,test,R,104,1,656,391,P,0,NONE,0,1,577498,951
CONTROL_TS_4B_G,3,test,R,105,1,656,391,R,1,<rshift>,1,1,578499,442
CONTROL_TS_4B_G,3,test,R,106,2,856,391,R,1,<rshift>,1,1,579499,355
CONTROL_TS_4B_G,3,test,R,107,2,856,391,R,1,<rshift>,1,1,580499,353
CONTROL_TS_4B_G,3,test,R,108,4,856,591,R,1,<rshift>,1,1,581499,334
CONTROL_TS_4B_G,3,test,R,109,3,656,591,R,1,<rshift>,1,1,582499,286
CONTROL_TS_4B_G,3,test,R,110,2,856,391,R,1,<rshift>,1,1,583499,294
CONTROL_TS_4B_G,3,test,R,111,1,656,391,R,1,<rshift>,1,1,584499,428
CONTROL_TS_4B_G,3,test,R,112,3,656,591,R,1,<rshift>,1,1,585499,356
CONTROL_TS_4B_G,3,test,R,113,2,856,391,R,1,<rshift>,1,1,586499,299
CONTROL_TS_4B_G,3,test,R,114,1,656,391,R,1,<rshift>,1,1,587499,303
CONTROL_TS_4B_G,3,test,R,115,4,856,591,R,1,<rshift>,1,1,588499,294
CONTROL_TS_4B_G,3,test,R,116,1,656,391,R,1,<rshift>,1,1,589499,278
CONTROL_TS_4B_G,3,test,R,117,3,656,591,R,1,<rshift>,1,1,590499,367
CONTROL_TS_4B_G,3,test,R,118,4,856,591,P,0,<rshift>,1,0,591499,346
CONTROL_TS_4B_G,3,test,R,119,1,656,391,P,0,<rshift>,1,0,592499,360
CONTROL_TS_4B_G,3,test,R,120,1,656,391,R,1,<rshift>,1,1,593499,624
CONTROL_TS_4B_G,3,test,R,121,1,656,391,R,1,<rshift>,1,1,594499,478
CONTROL_TS_4B_G,3,test,R,122,3,656,591,R,1,<rshift>,1,1,595499,402
CONTROL_TS_4B_G,3,test,R,123,4,856,591,R,1,<rshift>,1,1,596498,354
CONTROL_TS_4B_G,3,test,R,124,2,856,391,R,1,<rshift>,1,1,597499,339
CONTROL_TS_4B_G,3,test,R,125,1,656,391,R,1,<rshift>,1,1,598499,280
CONTROL_TS_4B_G,3,test,R,126,1,656,391,R,1,<rshift>,1,1,599499,364
CONTROL_TS_4B_G,3,test,R,127,2,856,391,R,1,<rshift>,1,1,600499,399
CONTROL_TS_4B_G,3,test,R,128,3,656,591,R,1,<rshift>,1,1,601499,305
CONTROL_TS_4B_G,3,test,R,129,2,856,391,R,1,<rshift>,1,1,602499,405
CONTROL_TS_4B_G,3,test,R,130,2,856,391,R,1,<rshift>,1,1,603499,301
CONTROL_TS_4B_G,3,test,R,131,3,656,591,R,1,<rshift>,1,1,604499,287
CONTROL_TS_4B_G,3,test,R,132,2,856,391,R,1,<rshift>,1,1,605499,271
CONTROL_TS_4B_G,3,test,R,133,1,656,391,P,0,<rshift>,1,0,606499,300
CONTROL_TS_4B_G,3,test,R,134,1,656,391,P,0,NONE,0,1,607499,950
CONTROL_TS_4B_G,3,test,R,135,2,856,391,R,1,<rshift>,1,1,608498,427
CONTROL_TS_4B_G,3,test,R,136,2,856,391,P,0,NONE,0,1,609498,951
CONTROL_TS_4B_G,3,test,R,137,2,856,391,R,1,<rshift>,1,1,610499,435
CONTROL_TS_4B_G,3,test,R,138,2,856,391,R,1,<rshift>,1,1,611498,344
CONTROL_TS_4B_G,3,test,R,139,3,656,591,R,1,<rshift>,1,1,612498,323
CONTROL_TS_4B_G,3,test,R,140,1,656,391,R,1,<rshift>,1,1,613499,462
CONTROL_TS_4B_G,3,test,R,141,3,656,591,P,0,<rshift>,1,0,614499,349
CONTROL_TS_4B_G,3,test,R,142,3,656,591,R,1,<rshift>,1,1,615499,373
CONTROL_TS_4B_G,3,test,R,143,2,856,391,R,1,<rshift>,1,1,616499,556
CONTROL_TS_4B_G,3,test,R,144,2,856,391,R,1,<rshift>,1,1,617499,336
CONTROL_TS_4B_G,3,test,R,145,3,656,591,R,1,<rshift>,1,1,618499,344
CONTROL_TS_4B_G,3,test,R,146,1,656,391,R,1,<rshift>,1,1,619499,334
CONTROL_TS_4B_G,3,test,R,147,3,656,591,R,1,<rshift>,1,1,620499,440
CONTROL_TS_4B_G,3,test,R,148,4,856,591,R,1,<rshift>,1,1,621498,338
CONTROL_TS_4B_G,3,test,R,149,1,656,391,R,1,<rshift>,1,1,622499,307
CONTROL_TS_4B_G,3,test,R,150,4,856,591,R,1,<rshift>,1,1,623499,319
CONTROL_TS_4B_G,3,test,R,151,4,856,591,P,0,<rshift>,1,0,624499,369
CONTROL_TS_4B_G,3,test,R,152,1,656,391,R,1,<rshift>,1,1,625499,380
CONTROL_TS_4B_G,3,test,R,153,1,656,391,R,1,<rshift>,1,1,626499,335
CONTROL_TS_4B_G,3,test,R,154,3,656,591,P,0,NONE,0,1,627499,950
CONTROL_TS_4B_G,3,test,R,155,1,656,391,R,1,<rshift>,1,1,628498,314
CONTROL_TS_4B_G,3,test,R,156,4,856,591,P,0,<rshift>,1,0,629499,342
CONTROL_TS_4B_G,3,test,R,157,1,656,391,R,1,<rshift>,1,1,630499,324
CONTROL_TS_4B_G,3,test,R,158,1,656,391,R,1,<rshift>,1,1,631499,294
CONTROL_TS_4B_G,3,test,R,159,1,656,391,R,1,<rshift>,1,1,632499,318
CONTROL_TS_4B_G,3,test,R,160,4,856,591,P,0,NONE,0,1,633499,950
CONTROL_TS_4B_G,3,test,R,161,3,656,591,R,1,<rshift>,1,1,634499,362
CONTROL_TS_4B_G,3,test,R,162,3,656,591,P,0,NONE,0,1,635499,950
CONTROL_TS_4B_G,3,test,R,163,3,656,591,P,0,NONE,0,1,636499,950
CONTROL_TS_4B_G,3,test,R,164,4,856,591,R,1,<rshift>,1,1,637498,662
CONTROL_TS_4B_G,3,test,R,165,2,856,391,R,1,<rshift>,1,1,638499,355
CONTROL_TS_4B_G,3,test,R,166,3,656,591,P,0,NONE,0,1,639498,951
CONTROL_TS_4B_G,3,test,R,167,1,656,391,P,0,<rshift>,1,0,640499,338
CONTROL_TS_4B_G,3,test,R,168,2,856,391,R,1,<rshift>,1,1,641498,347
CONTROL_TS_4B_G,3,test,R,169,2,856,391,R,1,<rshift>,1,1,642499,452
CONTROL_TS_4B_G,3,test,R,170,4,856,591,R,1,<rshift>,1,1,643499,297
CONTROL_TS_4B_G,3,test,R,171,1,656,391,R,1,<rshift>,1,1,644499,299
CONTROL_TS_4B_G,3,test,R,172,1,656,391,R,1,<rshift>,1,1,645499,348
CONTROL_TS_4B_G,3,test,R,173,1,656,391,R,1,<rshift>,1,1,646499,343
CONTROL_TS_4B_G,3,test,R,174,3,656,591,P,0,NONE,0,1,647499,950
CONTROL_TS_4B_G,3,test,R,175,1,656,391,R,1,<rshift>,1,1,648499,382
CONTROL_TS_4B_G,3,test,R,176,3,656,591,R,1,<rshift>,1,1,649499,394
CONTROL_TS_4B_G,3,test,R,177,1,656,391,P,0,<rshift>,1,0,650499,392
CONTROL_TS_4B_G,3,test,R,178,2,856,391,P,0,<rshift>,1,0,651498,451
CONTROL_TS_4B_G,3,test,R,179,2,856,391,R,1,NONE,0,0,652498,950
CONTROL_TS_4B_G,3,test,R,180,4,856,591,R,1,<rshift>,1,1,653499,372
CONTROL_TS_4B_G,3,test,R,181,4,856,591,R,1,<rshift>,1,1,654499,580
CONTROL_TS_4B_G,3,test,R,182,2,856,391,R,1,<rshift>,1,1,655499,373
CONTROL_TS_4B_G,3,test,R,183,4,856,591,R,1,<rshift>,1,1,656498,407
CONTROL_TS_4B_G,3,test,R,184,1,656,391,R,1,<rshift>,1,1,657499,464
CONTROL_TS_4B_G,3,test,R,185,3,656,591,R,1,<rshift>,1,1,658499,333
CONTROL_TS_4B_G,3,test,R,186,2,856,391,R,1,<rshift>,1,1,659499,303
CONTROL_TS_4B_G,3,test,R,187,1,656,391,R,1,<rshift>,1,1,660499,355
CONTROL_TS_4B_G,3,test,R,188,3,656,591,R,1,<rshift>,1,1,661499,376
CONTROL_TS_4B_G,3,test,R,189,2,856,391,R,1,<rshift>,1,1,662499,316
CONTROL_TS_4B_G,3,test,R,190,2,856,391,R,1,<rshift>,1,1,663499,387
CONTROL_TS_4B_G,3,test,R,191,1,656,391,P,0,<rshift>,1,0,664499,326
CONTROL_TS_4B_G,3,test,R,192,2,856,391,R,1,<rshift>,1,1,665499,369
CONTROL_TS_4B_G,3,test,R,193,3,656,591,R,1,<rshift>,1,1,666499,374
CONTROL_TS_4B_G,3,test,R,194,3,656,591,R,1,<rshift>,1,1,667499,328
CONTROL_TS_4B_G,3,test,R,195,2,856,391,R,1,<rshift>,1,1,668498,309
CONTROL_TS_4B_G,3,test,R,196,4,856,591,P,0,NONE,0,1,669499,950
CONTROL_TS_4B_G,3,test,R,197,3,656,591,R,1,<rshift>,1,1,670499,349
CONTROL_TS_4B_G,3,test,R,198,2,856,391,R,1,<rshift>,1,1,671499,325
CONTROL_TS_4B_G,3,test,R,199,2,856,391,R,1,<rshift>,1,1,672499,397
CONTROL_TS_4B_G,3,test,R,200,3,656,591,R,1,<rshift>,1,1,673498,370
CONTROL_TS_4B_G,3,test,R,201,1,656,391,R,1,<rshift>,1,1,674499,329
CONTROL_TS_4B_G,3,test,R,202,3,656,591,R,1,<rshift>,1,1,675499,365
CONTROL_TS_4B_G,3,test,R,203,3,656,591,R,1,<rshift>,1,1,676499,395
CONTROL_TS_4B_G,3,test,R,204,4,856,591,R,1,<rshift>,1,1,677499,299
CONTROL_TS_4B_G,3,test,R,205,3,656,591,R,1,<rshift>,1,1,678499,351
CONTROL_TS_4B_G,3,test,R,206,1,656,391,R,1,<rshift>,1,1,679499,350
CONTROL_TS_4B_G,3,test,R,207,3,656,591,P,0,<rshift>,1,0,680498,365
CONTROL_TS_4B_G,3,test,R,208,3,656,591,R,1,<rshift>,1,1,681499,679
CONTROL_TS_4B_G,3,test,R,209,1,656,391,R,1,<rshift>,1,1,682499,355
CONTROL_TS_4B_G,3,test,R,210,1,656,391,R,1,<rshift>,1,1,683499,382
CONTROL_TS_4B_G,3,test,R,211,2,856,391,R,1,<rshift>,1,1,684499,372
CONTROL_TS_4B_G,3,test,R,212,3,656,591,P,0,<rshift>,1,0,685499,396
CONTROL_TS_4B_G,3,test,R,213,2,856,391,R,1,<rshift>,1,1,686501,345
CONTROL_TS_4B_G,3,test,R,214,2,856,391,R,1,<rshift>,1,1,687499,378
CONTROL_TS_4B_G,3,test,R,215,3,656,591,R,1,<rshift>,1,1,688499,539
CONTROL_TS_4B_G,3,test,R,216,3,656,591,R,1,<rshift>,1,1,689499,555
CONTROL_TS_4B_G,3,test,R,217,1,656,391,R,1,<rshift>,1,1,690499,429
CONTROL_TS_4B_G,3,test,R,218,4,856,591,R,1,<rshift>,1,1,691499,330
CONTROL_TS_4B_G,3,test,R,219,3,656,591,R,1,<rshift>,1,1,692499,380
CONTROL_TS_4B_G,3,test,R,220,4,856,591,P,0,NONE,0,1,693499,950
CONTROL_TS_4B_G,3,test,R,221,4,856,591,R,1,<rshift>,1,1,694499,392
CONTROL_TS_4B_G,3,test,R,222,1,656,391,R,1,<rshift>,1,1,695499,380
CONTROL_TS_4B_G,3,test,R,223,2,856,391,R,1,<rshift>,1,1,696499,324
CONTROL_TS_4B_G,3,test,R,224,4,856,591,P,0,<rshift>,1,0,697499,347
CONTROL_TS_4B_G,3,test,R,225,2,856,391,R,1,<rshift>,1,1,698498,365
CONTROL_TS_4B_G,3,test,R,226,4,856,591,R,1,<rshift>,1,1,699499,470
CONTROL_TS_4B_G,3,test,R,227,2,856,391,R,1,<rshift>,1,1,700499,351
CONTROL_TS_4B_G,3,test,R,228,4,856,591,P,0,<rshift>,1,0,701499,393
CONTROL_TS_4B_G,3,test,R,229,1,656,391,P,0,<rshift>,1,0,702499,395
CONTROL_TS_4B_G,3,test,R,230,2,856,391,R,1,NONE,0,0,703499,950
CONTROL_TS_4B_G,3,test,R,231,4,856,591,P,0,NONE,0,1,704499,950
CONTROL_TS_4B_G,3,test,R,232,2,856,391,P,0,NONE,0,1,705498,951
CONTROL_TS_4B_G,3,test,R,233,4,856,591,R,1,<rshift>,1,1,706499,386
CONTROL_TS_4B_G,3,test,R,234,1,656,391,R,1,<rshift>,1,1,707499,376
CONTROL_TS_4B_G,3,test,R,235,4,856,591,R,1,<rshift>,1,1,708499,370
CONTROL_TS_4B_G,3,test,R,236,3,656,591,P,0,<rshift>,1,0,709499,337
CONTROL_TS_4B_G,3,test,R,237,1,656,391,R,1,<rshift>,1,1,710499,335
CONTROL_TS_4B_G,3,test,R,238,3,656,591,R,1,<rshift>,1,1,711499,416
CONTROL_TS_4B_G,3,test,R,239,2,856,391,R,1,<rshift>,1,1,712499,399
CONTROL_TS_4B_G,3,test,R,240,2,856,391,R,1,NONE,0,0,713499,950
CONTROL_TS_4B_G,3,test,R,241,2,856,391,R,1,<rshift>,1,1,714499,386
CONTROL_TS_4B_G,3,test,R,242,3,656,591,R,1,<rshift>,1,1,715499,351
CONTROL_TS_4B_G,3,test,R,243,2,856,391,R,1,<rshift>,1,1,716498,319
CONTROL_TS_4B_G,3,test,R,244,1,656,391,R,1,<rshift>,1,1,717499,363
CONTROL_TS_4B_G,3,test,R,245,3,656,591,R,1,<rshift>,1,1,718499,378
CONTROL_TS_4B_G,3,test,R,246,1,656,391,R,1,<rshift>,1,1,719499,336
CONTROL_TS_4B_G,3,test,R,247,2,856,391,R,1,<rshift>,1,1,720499,333
CONTROL_TS_4B_G,3,test,R,248,2,856,391,R,1,<rshift>,1,1,721499,382
CONTROL_TS_4B_G,3,test,R,249,1,656,391,R,1,<rshift>,1,1,722499,343
CONTROL_TS_4B_G,3,test,R,250,4,856,591,R,1,<rshift>,1,1,723499,433
CONTROL_TS_4B_G,3,test,R,251,2,856,391,R,1,<rshift>,1,1,724499,330
CONTROL_TS_4B_G,3,test,R,252,3,656,591,R,1,<rshift>,1,1,725499,339
CONTROL_TS_4B_G,3,test,R,253,1,656,391,P,0,<rshift>,1,0,726499,343
CONTROL_TS_4B_G,3,test,R,254,3,656,591,R,1,<rshift>,1,1,727499,345
CONTROL_TS_4B_G,3,test,R,255,3,656,591,R,1,<rshift>,1,1,728499,383
CONTROL_TS_4B_G,3,test,R,256,1,656,391,R,1,<rshift>,1,1,729499,320
CONTROL_TS_4B_G,3,test,R,257,1,656,391,R,1,<rshift>,1,1,730499,335
CONTROL_TS_4B_G,3,test,R,258,2,856,391,R,1,<rshift>,1,1,731499,421
CONTROL_TS_4B_G,3,test,R,259,1,656,391,R,1,<rshift>,1,1,732499,359
CONTROL_TS_4B_G,3,test,R,260,2,856,391,P,0,<rshift>,1,0,733499,311
CONTROL_TS_4B_G,3,test,R,261,1,656,391,R,1,<rshift>,1,1,734499,579
CONTROL_TS_4B_G,3,test,R,262,1,656,391,R,1,<rshift>,1,1,735499,428
CONTROL_TS_4B_G,3,test,R,263,4,856,591,R,1,<rshift>,1,1,736499,469
CONTROL_TS_4B_G,3,test,R,264,1,656,391,P,0,<rshift>,1,0,737499,348
CONTROL_TS_4B_G,3,test,R,265,1,656,391,R,1,NONE,0,0,738499,950
CONTROL_TS_4B_G,3,test,R,266,2,856,391,R,1,<rshift>,1,1,739499,305
CONTROL_TS_4B_G,3,test,R,267,2,856,391,R,1,<rshift>,1,1,740499,341
CONTROL_TS_4B_G,3,test,R,268,2,856,391,R,1,<rshift>,1,1,741499,328
CONTROL_TS_4B_G,3,test,R,269,4,856,591,R,1,<rshift>,1,1,742499,377
CONTROL_TS_4B_G,3,test,R,270,4,856,591,R,1,<rshift>,1,1,743499,597
CONTROL_TS_4B_G,3,test,R,271,4,856,591,R,1,<rshift>,1,1,744499,359
CONTROL_TS_4B_G,3,test,R,272,4,856,591,R,1,<rshift>,1,1,745499,272
CONTROL_TS_4B_G,3,test,R,273,3,656,591,P,0,<rshift>,1,0,746498,351
CONTROL_TS_4B_G,3,test,R,274,4,856,591,R,1,<rshift>,1,1,747499,476
CONTROL_TS_4B_G,3,test,R,275,2,856,391,R,1,<rshift>,1,1,748499,680
CONTROL_TS_4B_G,3,test,R,276,4,856,591,R,1,<rshift>,1,1,749500,392
CONTROL_TS_4B_G,3,test,R,277,2,856,391,R,1,<rshift>,1,1,750499,305
CONTROL_TS_4B_G,3,test,R,278,1,656,391,R,1,<rshift>,1,1,751499,316
CONTROL_TS_4B_G,3,test,R,279,2,856,391,P,0,<rshift>,1,0,752499,323
CONTROL_TS_4B_G,3,test,R,280,3,656,591,R,1,NONE,0,0,753499,950
CONTROL_TS_4B_G,3,test,R,281,4,856,591,P,0,NONE,0,1,754498,950
CONTROL_TS_4B_G,3,test,R,282,4,856,591,R,1,<rshift>,1,1,755499,396
CONTROL_TS_4B_G,3,test,R,283,4,856,591,R,1,<rshift>,1,1,756498,415
CONTROL_TS_4B_G,3,test,R,284,1,656,391,R,1,<rshift>,1,1,757499,392
CONTROL_TS_4B_G,3,test,R,285,3,656,591,P,0,NONE,0,1,758499,950
CONTROL_TS_4B_G,3,test,R,286,4,856,591,R,1,<rshift>,1,1,759498,313
CONTROL_TS_4B_G,3,test,R,287,1,656,391,R,1,<rshift>,1,1,760499,330
CONTROL_TS_4B_G,3,test,R,288,3,656,591,R,1,<rshift>,1,1,761499,439
CONTROL_TS_4B_G,3,test,R,289,3,656,591,R,1,<rshift>,1,1,762499,407
CONTROL_TS_4B_G,3,test,R,290,2,856,391,R,1,<rshift>,1,1,763498,629
CONTROL_TS_4B_G,3,test,R,291,2,856,391,R,1,<rshift>,1,1,764499,342
CONTROL_TS_4B_G,3,test,R,292,3,656,591,R,1,<rshift>,1,1,765499,335
CONTROL_TS_4B_G,3,test,R,293,4,856,591,R,1,<rshift>,1,1,766499,273
CONTROL_TS_4B_G,3,test,R,294,2,856,391,R,1,<rshift>,1,1,767499,330
CONTROL_TS_4B_G,3,test,R,295,1,656,391,P,0,<rshift>,1,0,768499,313
CONTROL_TS_4B_G,3,test,R,296,2,856,391,R,1,<rshift>,1,1,769500,309
CONTROL_TS_4B_G,3,test,R,297,4,856,591,R,1,<rshift>,1,1,770499,357
CONTROL_TS_4B_G,3,test,R,298,4,856,591,R,1,<rshift>,1,1,771499,339
CONTROL_TS_4B_G,3,test,R,299,3,656,591,R,1,<rshift>,1,1,772499,335
CONTROL_TS_4B_G,3,test,R,300,3,656,591,R,1,<rshift>,1,1,773499,320
