subnum,block,type,correctresponse,trial,choice,x,y,stim,present,response,responded,corr,starttime,rt
CONTROL_TS_14B,0,practice,P,1,2,740,260,P,1,NONE,0,0,17251,952
CONTROL_TS_14B,0,practice,P,2,3,540,460,P,1,NONE,0,0,19254,952
CONTROL_TS_14B,0,practice,P,3,1,540,260,P,1,<rshift>,1,1,21250,620
CONTROL_TS_14B,0,practice,P,4,4,740,460,P,1,NONE,0,0,21891,953
CONTROL_TS_14B,0,practice,P,5,3,540,460,R,0,<rshift>,1,0,23890,644
CONTROL_TS_14B,0,practice,P,6,3,540,460,P,1,<rshift>,1,1,25583,598
CONTROL_TS_14B,0,practice,P,7,4,740,460,P,1,NONE,0,0,26200,952
CONTROL_TS_14B,0,practice,P,8,2,740,260,P,1,<rshift>,1,1,28197,393
CONTROL_TS_14B,0,practice,P,9,4,740,460,R,0,<rshift>,1,0,28624,566
CONTROL_TS_14B,0,practice,P,10,2,740,260,P,1,<rshift>,1,1,30235,394
CONTROL_TS_14B,1,test,P,1,3,540,460,R,0,NONE,0,1,47138,952
CONTROL_TS_14B,1,test,P,2,3,540,460,R,0,NONE,0,1,48149,951
CONTROL_TS_14B,1,test,P,3,1,540,260,P,1,<rshift>,1,1,49147,426
CONTROL_TS_14B,1,test,P,4,2,740,260,P,1,<rshift>,1,1,50144,535
CONTROL_TS_14B,1,test,P,5,3,540,460,P,1,<rshift>,1,1,51145,322
CONTROL_TS_14B,1,test,P,6,4,740,460,R,0,<rshift>,1,0,52146,306
CONTROL_TS_14B,1,test,P,7,4,740,460,P,1,<rshift>,1,1,53146,396
CONTROL_TS_14B,1,test,P,8,4,740,460,P,1,<rshift>,1,1,54150,420
CONTROL_TS_14B,1,test,P,9,2,740,260,R,0,<rshift>,1,0,55144,543
CONTROL_TS_14B,1,test,P,10,4,740,460,P,1,<rshift>,1,1,56142,577
CONTROL_TS_14B,1,test,P,11,4,740,460,P,1,NONE,0,0,57137,953
CONTROL_TS_14B,1,test,P,12,1,540,260,P,1,<rshift>,1,1,58144,337
CONTROL_TS_14B,1,test,P,13,3,540,460,P,1,<rshift>,1,1,59141,338
CONTROL_TS_14B,1,test,P,14,3,540,460,P,1,<rshift>,1,1,60144,319
CONTROL_TS_14B,1,test,P,15,2,740,260,R,0,NONE,0,1,61141,952
CONTROL_TS_14B,1,test,P,16,1,540,260,P,1,<rshift>,1,1,62148,360
CONTROL_TS_14B,1,test,P,17,2,740,260,R,0,NONE,0,1,63143,953
CONTROL_TS_14B,1,test,P,18,3,540,460,P,1,<rshift>,1,1,64146,314
CONTROL_TS_14B,1,test,P,19,2,740,260,P,1,<rshift>,1,1,65146,567
CONTROL_TS_14B,1,test,P,20,1,540,260,P,1,<rshift>,1,1,66145,317
CONTROL_TS_14B,1,test,P,21,2,740,260,P,1,<rshift>,1,1,67150,351
CONTROL_TS_14B,1,test,P,22,2,740,260,R,0,NONE,0,1,68144,951
CONTROL_TS_14B,1,test,P,23,3,540,460,P,1,<rshift>,1,1,69147,401
CONTROL_TS_14B,1,test,P,24,4,740,460,R,0,<rshift>,1,0,70148,354
CONTROL_TS_14B,1,test,P,25,3,540,460,P,1,NONE,0,0,71140,953
CONTROL_TS_14B,1,test,P,26,2,740,260,P,1,<rshift>,1,1,72149,397
CONTROL_TS_14B,1,test,P,27,2,740,260,P,1,<rshift>,1,1,73148,383
CONTROL_TS_14B,1,test,P,28,3,540,460,P,1,<rshift>,1,1,74146,349
CONTROL_TS_14B,1,test,P,29,2,740,260,R,0,<rshift>,1,0,75139,327
CONTROL_TS_14B,1,test,P,30,1,540,260,P,1,<rshift>,1,1,76148,342
CONTROL_TS_14B,1,test,P,31,2,740,260,P,1,<rshift>,1,1,77145,428
CONTROL_TS_14B,1,test,P,32,3,540,460,P,1,<rshift>,1,1,78140,309
CONTROL_TS_14B,1,test,P,33,2,740,260,R,0,NONE,0,1,79149,953
CONTROL_TS_14B,1,test,P,34,1,540,260,R,0,<rshift>,1,0,80144,352
CONTROL_TS_14B,1,test,P,35,3,540,460,P,1,<rshift>,1,1,81142,425
CONTROL_TS_14B,1,test,P,36,1,540,260,P,1,<rshift>,1,1,82149,433
CONTROL_TS_14B,1,test,P,37,4,740,460,P,1,<rshift>,1,1,83145,302
CONTROL_TS_14B,1,test,P,38,2,740,260,P,1,<rshift>,1,1,84145,382
CONTROL_TS_14B,1,test,P,39,4,740,460,R,0,<rshift>,1,0,85142,320
CONTROL_TS_14B,1,test,P,40,2,740,260,P,1,<rshift>,1,1,86140,478
CONTROL_TS_14B,1,test,P,41,2,740,260,R,0,NONE,0,1,87140,954
CONTROL_TS_14B,1,test,P,42,1,540,260,P,1,<rshift>,1,1,88141,295
CONTROL_TS_14B,1,test,P,43,2,740,260,P,1,<rshift>,1,1,89148,353
CONTROL_TS_14B,1,test,P,44,4,740,460,R,0,NONE,0,1,90139,953
CONTROL_TS_14B,1,test,P,45,1,540,260,R,0,<rshift>,1,0,91140,302
CONTROL_TS_14B,1,test,P,46,3,540,460,P,1,<rshift>,1,1,92142,556
CONTROL_TS_14B,1,test,P,47,1,540,260,R,0,NONE,0,1,93144,953
CONTROL_TS_14B,1,test,P,48,1,540,260,P,1,NONE,0,0,94143,953
CONTROL_TS_14B,1,test,P,49,2,740,260,R,0,NONE,0,1,95138,953
CONTROL_TS_14B,1,test,P,50,2,740,260,P,1,<rshift>,1,1,96148,366
CONTROL_TS_14B,1,test,P,51,1,540,260,P,1,<rshift>,1,1,97144,340
CONTROL_TS_14B,1,test,P,52,2,740,260,P,1,<rshift>,1,1,98145,646
CONTROL_TS_14B,1,test,P,53,1,540,260,P,1,<rshift>,1,1,99149,346
CONTROL_TS_14B,1,test,P,54,3,540,460,P,1,<rshift>,1,1,100144,316
CONTROL_TS_14B,1,test,P,55,1,540,260,R,0,<rshift>,1,0,101142,322
CONTROL_TS_14B,1,test,P,56,3,540,460,P,1,<rshift>,1,1,102145,344
CONTROL_TS_14B,1,test,P,57,1,540,260,P,1,<rshift>,1,1,103143,362
CONTROL_TS_14B,1,test,P,58,1,540,260,P,1,<rshift>,1,1,104140,326
CONTROL_TS_14B,1,test,P,59,2,740,260,P,1,<rshift>,1,1,105143,280
CONTROL_TS_14B,1,test,P,60,1,540,260,R,0,<rshift>,1,0,106141,323
CONTROL_TS_14B,1,test,P,61,3,540,460,R,0,NONE,0,1,107150,952
CONTROL_TS_14B,1,test,P,62,4,740,460,P,1,<rshift>,1,1,108144,304
CONTROL_TS_14B,1,test,P,63,4,740,460,P,1,<rshift>,1,1,109146,309
CONTROL_TS_14B,1,test,P,64,4,740,460,P,1,<rshift>,1,1,110143,404
CONTROL_TS_14B,1,test,P,65,2,740,260,P,1,<rshift>,1,1,111145,525
CONTROL_TS_14B,1,test,P,66,2,740,260,P,1,<rshift>,1,1,112144,392
CONTROL_TS_14B,1,test,P,67,4,740,460,P,1,<rshift>,1,1,113146,383
CONTROL_TS_14B,1,test,P,68,2,740,260,P,1,<rshift>,1,1,114145,392
CONTROL_TS_14B,1,test,P,69,2,740,260,P,1,<rshift>,1,1,115144,356
CONTROL_TS_14B,1,test,P,70,2,740,260,P,1,<rshift>,1,1,116145,366
CONTROL_TS_14B,1,test,P,71,1,540,260,P,1,<rshift>,1,1,117144,410
CONTROL_TS_14B,1,test,P,72,3,540,460,P,1,<rshift>,1,1,118144,304
CONTROL_TS_14B,1,test,P,73,4,740,460,P,1,<rshift>,1,1,119146,385
CONTROL_TS_14B,1,test,P,74,2,740,260,R,0,<rshift>,1,0,120149,278
CONTROL_TS_14B,1,test,P,75,1,540,260,P,1,<rshift>,1,1,121145,303
CONTROL_TS_14B,1,test,P,76,3,540,460,P,1,<rshift>,1,1,122146,267
CONTROL_TS_14B,1,test,P,77,2,740,260,P,1,<rshift>,1,1,123145,480
CONTROL_TS_14B,1,test,P,78,3,540,460,P,1,<rshift>,1,1,124149,355
CONTROL_TS_14B,1,test,P,79,2,740,260,P,1,<rshift>,1,1,125144,296
CONTROL_TS_14B,1,test,P,80,1,540,260,P,1,<rshift>,1,1,126143,438
CONTROL_TS_14B,1,test,P,81,4,740,460,P,1,<rshift>,1,1,127150,318
CONTROL_TS_14B,1,test,P,82,2,740,260,P,1,<rshift>,1,1,128146,419
CONTROL_TS_14B,1,test,P,83,2,740,260,P,1,<rshift>,1,1,129146,351
CONTROL_TS_14B,1,test,P,84,2,740,260,P,1,<rshift>,1,1,130147,356
CONTROL_TS_14B,1,test,P,85,1,540,260,P,1,<rshift>,1,1,131142,424
CONTROL_TS_14B,1,test,P,86,1,540,260,P,1,<rshift>,1,1,132140,325
CONTROL_TS_14B,1,test,P,87,3,540,460,P,1,<rshift>,1,1,133147,305
CONTROL_TS_14B,1,test,P,88,4,740,460,R,0,<rshift>,1,0,134147,319
CONTROL_TS_14B,1,test,P,89,1,540,260,P,1,<rshift>,1,1,135149,337
CONTROL_TS_14B,1,test,P,90,3,540,460,P,1,<rshift>,1,1,136143,541
CONTROL_TS_14B,1,test,P,91,3,540,460,P,1,<rshift>,1,1,137144,344
CONTROL_TS_14B,1,test,P,92,3,540,460,P,1,<rshift>,1,1,138139,347
CONTROL_TS_14B,1,test,P,93,3,540,460,P,1,<rshift>,1,1,139143,311
CONTROL_TS_14B,1,test,P,94,4,740,460,P,1,<rshift>,1,1,140142,266
CONTROL_TS_14B,1,test,P,95,3,540,460,P,1,<rshift>,1,1,141144,338
CONTROL_TS_14B,1,test,P,96,1,540,260,P,1,<rshift>,1,1,142148,293
CONTROL_TS_14B,1,test,P,97,3,540,460,R,0,<rshift>,1,0,143144,341
CONTROL_TS_14B,1,test,P,98,4,740,460,P,1,<rshift>,1,1,144143,298
CONTROL_TS_14B,1,test,P,99,4,740,460,P,1,<rshift>,1,1,145142,341
CONTROL_TS_14B,1,test,P,100,1,540,260,P,1,<rshift>,1,1,146147,327
CONTROL_TS_14B,1,test,P,101,3,540,460,R,0,<rshift>,1,0,147144,367
CONTROL_TS_14B,1,test,P,102,1,540,260,P,1,<rshift>,1,1,148148,524
CONTROL_TS_14B,1,test,P,103,3,540,460,P,1,<rshift>,1,1,149139,317
CONTROL_TS_14B,1,test,P,104,4,740,460,P,1,<rshift>,1,1,150145,281
CONTROL_TS_14B,1,test,P,105,1,540,260,R,0,<rshift>,1,0,151143,304
CONTROL_TS_14B,1,test,P,106,3,540,460,P,1,<rshift>,1,1,152146,526
CONTROL_TS_14B,1,test,P,107,1,540,260,P,1,<rshift>,1,1,153151,623
CONTROL_TS_14B,1,test,P,108,2,740,260,R,0,<rshift>,1,0,154143,344
CONTROL_TS_14B,1,test,P,109,3,540,460,P,1,<rshift>,1,1,155145,363
CONTROL_TS_14B,1,test,P,110,4,740,460,P,1,<rshift>,1,1,156144,331
CONTROL_TS_14B,1,test,P,111,2,740,260,P,1,<rshift>,1,1,157139,523
CONTROL_TS_14B,1,test,P,112,2,740,260,P,1,<rshift>,1,1,158147,383
CONTROL_TS_14B,1,test,P,113,2,740,260,P,1,<rshift>,1,1,159147,360
CONTROL_TS_14B,1,test,P,114,4,740,460,P,1,<rshift>,1,1,160142,354
CONTROL_TS_14B,1,test,P,115,3,540,460,R,0,NONE,0,1,161142,952
CONTROL_TS_14B,1,test,P,116,3,540,460,P,1,<rshift>,1,1,162146,388
CONTROL_TS_14B,1,test,P,117,4,740,460,R,0,<rshift>,1,0,163144,356
CONTROL_TS_14B,1,test,P,118,3,540,460,P,1,<rshift>,1,1,164147,401
CONTROL_TS_14B,1,test,P,119,2,740,260,P,1,<rshift>,1,1,165142,500
CONTROL_TS_14B,1,test,P,120,1,540,260,P,1,<rshift>,1,1,166143,388
CONTROL_TS_14B,1,test,P,121,1,540,260,P,1,<rshift>,1,1,167145,415
CONTROL_TS_14B,1,test,P,122,4,740,460,R,0,<rshift>,1,0,168145,289
CONTROL_TS_14B,1,test,P,123,1,540,260,R,0,NONE,0,1,169148,953
CONTROL_TS_14B,1,test,P,124,1,540,260,P,1,<rshift>,1,1,170145,372
CONTROL_TS_14B,1,test,P,125,3,540,460,P,1,<rshift>,1,1,171144,413
CONTROL_TS_14B,1,test,P,126,4,740,460,P,1,<rshift>,1,1,172150,314
CONTROL_TS_14B,1,test,P,127,1,540,260,P,1,<rshift>,1,1,173143,527
CONTROL_TS_14B,1,test,P,128,4,740,460,R,0,<rshift>,1,0,174145,325
CONTROL_TS_14B,1,test,P,129,1,540,260,P,1,<rshift>,1,1,175144,371
CONTROL_TS_14B,1,test,P,130,4,740,460,P,1,<rshift>,1,1,176147,473
CONTROL_TS_14B,1,test,P,131,4,740,460,P,1,<rshift>,1,1,177148,377
CONTROL_TS_14B,1,test,P,132,3,540,460,P,1,<rshift>,1,1,178144,375
CONTROL_TS_14B,1,test,P,133,1,540,260,P,1,<rshift>,1,1,179145,307
CONTROL_TS_14B,1,test,P,134,3,540,460,R,0,<rshift>,1,0,180148,352
CONTROL_TS_14B,1,test,P,135,4,740,460,P,1,NONE,0,0,181142,952
CONTROL_TS_14B,1,test,P,136,3,540,460,P,1,<rshift>,1,1,182144,347
CONTROL_TS_14B,1,test,P,137,2,740,260,R,0,<rshift>,1,0,183143,307
CONTROL_TS_14B,1,test,P,138,3,540,460,P,1,<rshift>,1,1,184147,346
CONTROL_TS_14B,1,test,P,139,3,540,460,P,1,<rshift>,1,1,185147,331
CONTROL_TS_14B,1,test,P,140,1,540,260,P,1,<rshift>,1,1,186143,422
CONTROL_TS_14B,1,test,P,141,4,740,460,R,0,<rshift>,1,0,187149,316
CONTROL_TS_14B,1,test,P,142,1,540,260,R,0,<rshift>,1,0,188144,357
CONTROL_TS_14B,1,test,P,143,4,740,460,P,1,<rshift>,1,1,189146,390
CONTROL_TS_14B,1,test,P,144,1,540,260,R,0,<rshift>,1,0,190148,389
CONTROL_TS_14B,1,test,P,145,1,540,260,P,1,<rshift>,1,1,191149,784
CONTROL_TS_14B,1,test,P,146,3,540,460,P,1,<rshift>,1,1,192147,419
CONTROL_TS_14B,1,test,P,147,4,740,460,P,1,<rshift>,1,1,193149,318
CONTROL_TS_14B,1,test,P,148,2,740,260,P,1,<rshift>,1,1,194149,403
CONTROL_TS_14B,1,test,P,149,4,740,460,P,1,<rshift>,1,1,195146,410
CONTROL_TS_14B,1,test,P,150,3,540,460,R,0,<rshift>,1,0,196144,367
CONTROL_TS_14B,1,test,P,151,4,740,460,R,0,<rshift>,1,0,197146,270
CONTROL_TS_14B,1,test,P,152,1,540,260,P,1,<rshift>,1,1,198137,390
CONTROL_TS_14B,1,test,P,153,4,740,460,P,1,<rshift>,1,1,199143,370
CONTROL_TS_14B,1,test,P,154,1,540,260,P,1,<rshift>,1,1,200145,325
CONTROL_TS_14B,1,test,P,155,4,740,460,P,1,<rshift>,1,1,201146,295
CONTROL_TS_14B,1,test,P,156,3,540,460,R,0,<rshift>,1,0,202145,328
CONTROL_TS_14B,1,test,P,157,3,540,460,P,1,<rshift>,1,1,203145,596
CONTROL_TS_14B,1,test,P,158,1,540,260,P,1,<rshift>,1,1,204149,370
CONTROL_TS_14B,1,test,P,159,1,540,260,P,1,NONE,0,0,205144,952
CONTROL_TS_14B,1,test,P,160,4,740,460,P,1,<rshift>,1,1,206147,303
CONTROL_TS_14B,1,test,P,161,3,540,460,P,1,<rshift>,1,1,207145,325
CONTROL_TS_14B,1,test,P,162,1,540,260,P,1,<rshift>,1,1,208147,271
CONTROL_TS_14B,1,test,P,163,3,540,460,P,1,<rshift>,1,1,209146,313
CONTROL_TS_14B,1,test,P,164,2,740,260,P,1,<rshift>,1,1,210147,325
CONTROL_TS_14B,1,test,P,165,1,540,260,P,1,<rshift>,1,1,211147,294
CONTROL_TS_14B,1,test,P,166,3,540,460,P,1,<rshift>,1,1,212144,345
CONTROL_TS_14B,1,test,P,167,2,740,260,R,0,<rshift>,1,0,213150,290
CONTROL_TS_14B,1,test,P,168,2,740,260,P,1,<rshift>,1,1,214146,464
CONTROL_TS_14B,1,test,P,169,4,740,460,P,1,<rshift>,1,1,215143,403
CONTROL_TS_14B,1,test,P,170,3,540,460,P,1,<rshift>,1,1,216140,312
CONTROL_TS_14B,1,test,P,171,2,740,260,P,1,<rshift>,1,1,217148,368
CONTROL_TS_14B,1,test,P,172,1,540,260,P,1,<rshift>,1,1,218144,321
CONTROL_TS_14B,1,test,P,173,1,540,260,P,1,<rshift>,1,1,219143,362
CONTROL_TS_14B,1,test,P,174,4,740,460,R,0,<rshift>,1,0,220148,293
CONTROL_TS_14B,1,test,P,175,1,540,260,P,1,<rshift>,1,1,221146,306
CONTROL_TS_14B,1,test,P,176,4,740,460,R,0,<rshift>,1,0,222145,327
CONTROL_TS_14B,1,test,P,177,1,540,260,P,1,<rshift>,1,1,223146,393
CONTROL_TS_14B,1,test,P,178,4,740,460,R,0,NONE,0,1,224144,952
CONTROL_TS_14B,1,test,P,179,3,540,460,P,1,<rshift>,1,1,225146,310
CONTROL_TS_14B,1,test,P,180,4,740,460,P,1,<rshift>,1,1,226146,412
CONTROL_TS_14B,1,test,P,181,2,740,260,P,1,<rshift>,1,1,227151,371
CONTROL_TS_14B,1,test,P,182,1,540,260,P,1,<rshift>,1,1,228142,355
CONTROL_TS_14B,1,test,P,183,4,740,460,R,0,<rshift>,1,0,229151,351
CONTROL_TS_14B,1,test,P,184,4,740,460,P,1,<rshift>,1,1,230147,440
CONTROL_TS_14B,1,test,P,185,1,540,260,P,1,<rshift>,1,1,231148,397
CONTROL_TS_14B,1,test,P,186,2,740,260,P,1,<rshift>,1,1,232147,378
CONTROL_TS_14B,1,test,P,187,1,540,260,P,1,<rshift>,1,1,233146,406
CONTROL_TS_14B,1,test,P,188,2,740,260,P,1,<rshift>,1,1,234144,389
CONTROL_TS_14B,1,test,P,189,3,540,460,P,1,<rshift>,1,1,235145,366
CONTROL_TS_14B,1,test,P,190,2,740,260,P,1,<rshift>,1,1,236145,389
CONTROL_TS_14B,1,test,P,191,4,740,460,P,1,<rshift>,1,1,237146,329
CONTROL_TS_14B,1,test,P,192,2,740,260,P,1,<rshift>,1,1,238147,358
CONTROL_TS_14B,1,test,P,193,2,740,260,R,0,<rshift>,1,0,239146,350
CONTROL_TS_14B,1,test,P,194,3,540,460,P,1,<rshift>,1,1,240142,365
CONTROL_TS_14B,1,test,P,195,1,540,260,P,1,<rshift>,1,1,241144,426
CONTROL_TS_14B,1,test,P,196,4,740,460,R,0,<rshift>,1,0,242144,296
CONTROL_TS_14B,1,test,P,197,3,540,460,P,1,<rshift>,1,1,243144,354
CONTROL_TS_14B,1,test,P,198,2,740,260,P,1,<rshift>,1,1,244145,522
CONTROL_TS_14B,1,test,P,199,1,540,260,P,1,<rshift>,1,1,245144,479
CONTROL_TS_14B,1,test,P,200,3,540,460,P,1,<rshift>,1,1,246148,671
CONTROL_TS_14B,1,test,P,201,2,740,260,P,1,<rshift>,1,1,247144,660
CONTROL_TS_14B,1,test,P,202,2,740,260,P,1,<rshift>,1,1,248141,357
CONTROL_TS_14B,1,test,P,203,2,740,260,P,1,<rshift>,1,1,249145,358
CONTROL_TS_14B,1,test,P,204,4,740,460,P,1,NONE,0,0,250144,953
CONTROL_TS_14B,1,test,P,205,2,740,260,P,1,<rshift>,1,1,251148,37
CONTROL_TS_14B,1,test,P,206,2,740,260,P,1,NONE,0,0,252146,953
CONTROL_TS_14B,1,test,P,207,3,540,460,P,1,<rshift>,1,1,253146,550
CONTROL_TS_14B,1,test,P,208,1,540,260,R,0,<rshift>,1,0,254149,529
CONTROL_TS_14B,1,test,P,209,1,540,260,P,1,<rshift>,1,1,255148,350
CONTROL_TS_14B,1,test,P,210,3,540,460,P,1,<rshift>,1,1,256150,86
CONTROL_TS_14B,1,test,P,211,2,740,260,P,1,<rshift>,1,1,257143,2
CONTROL_TS_14B,1,test,P,212,3,540,460,P,1,<rshift>,1,1,258149,603
CONTROL_TS_14B,1,test,P,213,2,740,260,R,0,NONE,0,1,259147,952
CONTROL_TS_14B,1,test,P,214,2,740,260,P,1,NONE,0,0,260142,952
CONTROL_TS_14B,1,test,P,215,3,540,460,P,1,<rshift>,1,1,261138,371
CONTROL_TS_14B,1,test,P,216,3,540,460,P,1,<rshift>,1,1,262145,376
CONTROL_TS_14B,1,test,P,217,1,540,260,P,1,<rshift>,1,1,263146,334
CONTROL_TS_14B,1,test,P,218,2,740,260,P,1,<rshift>,1,1,264141,292
CONTROL_TS_14B,1,test,P,219,3,540,460,P,1,<rshift>,1,1,265139,283
CONTROL_TS_14B,1,test,P,220,4,740,460,R,0,<rshift>,1,0,266144,303
CONTROL_TS_14B,1,test,P,221,2,740,260,P,1,<rshift>,1,1,267148,533
CONTROL_TS_14B,1,test,P,222,4,740,460,P,1,NONE,0,0,268142,954
CONTROL_TS_14B,1,test,P,223,4,740,460,P,1,NONE,0,0,269144,953
CONTROL_TS_14B,1,test,P,224,4,740,460,P,1,<rshift>,1,1,270143,305
CONTROL_TS_14B,1,test,P,225,2,740,260,R,0,NONE,0,1,271145,952
CONTROL_TS_14B,1,test,P,226,4,740,460,P,1,<rshift>,1,1,272139,390
CONTROL_TS_14B,1,test,P,227,3,540,460,P,1,<rshift>,1,1,273147,395
CONTROL_TS_14B,1,test,P,228,3,540,460,R,0,<rshift>,1,0,274150,460
CONTROL_TS_14B,1,test,P,229,3,540,460,P,1,<rshift>,1,1,275146,685
CONTROL_TS_14B,1,test,P,230,3,540,460,P,1,NONE,0,0,276143,952
CONTROL_TS_14B,1,test,P,231,3,540,460,P,1,<rshift>,1,1,277143,648
CONTROL_TS_14B,1,test,P,232,4,740,460,P,1,<rshift>,1,1,278147,403
CONTROL_TS_14B,1,test,P,233,3,540,460,R,0,<rshift>,1,0,279147,379
CONTROL_TS_14B,1,test,P,234,1,540,260,P,1,NONE,0,0,280150,951
CONTROL_TS_14B,1,test,P,235,4,740,460,R,0,NONE,0,1,281140,953
CONTROL_TS_14B,1,test,P,236,3,540,460,P,1,<rshift>,1,1,282139,309
CONTROL_TS_14B,1,test,P,237,2,740,260,P,1,<rshift>,1,1,283139,364
CONTROL_TS_14B,1,test,P,238,1,540,260,P,1,NONE,0,0,284145,953
CONTROL_TS_14B,1,test,P,239,4,740,460,P,1,<rshift>,1,1,285144,428
CONTROL_TS_14B,1,test,P,240,3,540,460,P,1,<rshift>,1,1,286149,351
CONTROL_TS_14B,1,test,P,241,3,540,460,P,1,<rshift>,1,1,287141,360
CONTROL_TS_14B,1,test,P,242,3,540,460,P,1,<rshift>,1,1,288147,550
CONTROL_TS_14B,1,test,P,243,1,540,260,P,1,<rshift>,1,1,289146,616
CONTROL_TS_14B,1,test,P,244,1,540,260,P,1,<rshift>,1,1,290142,422
CONTROL_TS_14B,1,test,P,245,3,540,460,P,1,<rshift>,1,1,291146,417
CONTROL_TS_14B,1,test,P,246,2,740,260,P,1,<rshift>,1,1,292143,339
CONTROL_TS_14B,1,test,P,247,3,540,460,P,1,<rshift>,1,1,293147,333
CONTROL_TS_14B,1,test,P,248,4,740,460,P,1,<rshift>,1,1,294149,370
CONTROL_TS_14B,1,test,P,249,4,740,460,R,0,<rshift>,1,0,295143,348
CONTROL_TS_14B,1,test,P,250,2,740,260,R,0,<rshift>,1,0,296148,381
CONTROL_TS_14B,1,test,P,251,3,540,460,P,1,<rshift>,1,1,297147,380
CONTROL_TS_14B,1,test,P,252,2,740,260,R,0,<rshift>,1,0,298144,356
CONTROL_TS_14B,1,test,P,253,2,740,260,P,1,<rshift>,1,1,299145,487
CONTROL_TS_14B,1,test,P,254,3,540,460,P,1,<rshift>,1,1,300148,336
CONTROL_TS_14B,1,test,P,255,3,540,460,P,1,<rshift>,1,1,301147,698
CONTROL_TS_14B,1,test,P,256,3,540,460,P,1,<rshift>,1,1,302143,598
CONTROL_TS_14B,1,test,P,257,3,540,460,P,1,<rshift>,1,1,303145,428
CONTROL_TS_14B,1,test,P,258,2,740,260,P,1,<rshift>,1,1,304147,423
CONTROL_TS_14B,1,test,P,259,4,740,460,P,1,<rshift>,1,1,305147,361
CONTROL_TS_14B,1,test,P,260,1,540,260,P,1,<rshift>,1,1,306147,362
CONTROL_TS_14B,1,test,P,261,4,740,460,R,0,<rshift>,1,0,307146,371
CONTROL_TS_14B,1,test,P,262,3,540,460,P,1,<rshift>,1,1,308149,346
CONTROL_TS_14B,1,test,P,263,2,740,260,P,1,<rshift>,1,1,309149,454
CONTROL_TS_14B,1,test,P,264,4,740,460,P,1,<rshift>,1,1,310140,495
CONTROL_TS_14B,1,test,P,265,2,740,260,P,1,<rshift>,1,1,311141,687
CONTROL_TS_14B,1,test,P,266,4,740,460,P,1,<rshift>,1,1,312145,356
CONTROL_TS_14B,1,test,P,267,3,540,460,P,1,<rshift>,1,1,313144,316
CONTROL_TS_14B,1,test,P,268,3,540,460,P,1,<rshift>,1,1,314148,365
CONTROL_TS_14B,1,test,P,269,2,740,260,P,1,<rshift>,1,1,315147,352
CONTROL_TS_14B,1,test,P,270,1,540,260,P,1,<rshift>,1,1,316142,438
CONTROL_TS_14B,1,test,P,271,3,540,460,P,1,<rshift>,1,1,317147,555
CONTROL_TS_14B,1,test,P,272,1,540,260,P,1,<rshift>,1,1,318142,416
CONTROL_TS_14B,1,test,P,273,1,540,260,P,1,<rshift>,1,1,319144,630
CONTROL_TS_14B,1,test,P,274,1,540,260,P,1,<rshift>,1,1,320149,668
CONTROL_TS_14B,1,test,P,275,2,740,260,P,1,<rshift>,1,1,321143,319
CONTROL_TS_14B,1,test,P,276,1,540,260,P,1,<rshift>,1,1,322145,380
CONTROL_TS_14B,1,test,P,277,3,540,460,P,1,<rshift>,1,1,323151,409
CONTROL_TS_14B,1,test,P,278,4,740,460,R,0,NONE,0,1,324142,953
CONTROL_TS_14B,1,test,P,279,3,540,460,P,1,<rshift>,1,1,325147,376
CONTROL_TS_14B,1,test,P,280,4,740,460,P,1,<rshift>,1,1,326149,380
CONTROL_TS_14B,1,test,P,281,2,740,260,P,1,<rshift>,1,1,327142,332
CONTROL_TS_14B,1,test,P,282,1,540,260,R,0,<rshift>,1,0,328149,309
CONTROL_TS_14B,1,test,P,283,3,540,460,P,1,<rshift>,1,1,329143,397
CONTROL_TS_14B,1,test,P,284,1,540,260,P,1,<rshift>,1,1,330143,358
CONTROL_TS_14B,1,test,P,285,1,540,260,P,1,<rshift>,1,1,331143,521
CONTROL_TS_14B,1,test,P,286,2,740,260,P,1,<rshift>,1,1,332143,409
CONTROL_TS_14B,1,test,P,287,1,540,260,P,1,<rshift>,1,1,333147,473
CONTROL_TS_14B,1,test,P,288,3,540,460,P,1,<rshift>,1,1,334144,370
CONTROL_TS_14B,1,test,P,289,1,540,260,P,1,<rshift>,1,1,335143,365
CONTROL_TS_14B,1,test,P,290,1,540,260,P,1,<rshift>,1,1,336138,847
CONTROL_TS_14B,1,test,P,291,4,740,460,P,1,<rshift>,1,1,337146,472
CONTROL_TS_14B,1,test,P,292,1,540,260,P,1,<rshift>,1,1,338148,404
CONTROL_TS_14B,1,test,P,293,4,740,460,R,0,NONE,0,1,339146,951
CONTROL_TS_14B,1,test,P,294,1,540,260,P,1,<rshift>,1,1,340147,322
CONTROL_TS_14B,1,test,P,295,1,540,260,P,1,<rshift>,1,1,341141,415
CONTROL_TS_14B,1,test,P,296,2,740,260,P,1,<rshift>,1,1,342149,378
CONTROL_TS_14B,1,test,P,297,4,740,460,P,1,<rshift>,1,1,343151,376
CONTROL_TS_14B,1,test,P,298,2,740,260,P,1,<rshift>,1,1,344149,518
CONTROL_TS_14B,1,test,P,299,4,740,460,P,1,<rshift>,1,1,345143,523
CONTROL_TS_14B,1,test,P,300,2,740,260,P,1,<rshift>,1,1,346140,419
CONTROL_TS_14B,2,practice,R,1,2,740,260,R,1,<rshift>,1,1,371670,527
CONTROL_TS_14B,2,practice,R,2,3,540,460,P,0,NONE,0,1,372676,953
CONTROL_TS_14B,2,practice,R,3,1,540,260,R,1,<rshift>,1,1,373677,524
CONTROL_TS_14B,2,practice,R,4,1,540,260,R,1,<rshift>,1,1,374679,490
CONTROL_TS_14B,2,practice,R,5,2,740,260,R,1,<rshift>,1,1,375683,521
CONTROL_TS_14B,2,practice,R,6,3,540,460,R,1,<rshift>,1,1,376681,431
CONTROL_TS_14B,2,practice,R,7,1,540,260,P,0,<rshift>,1,0,377676,298
CONTROL_TS_14B,2,practice,R,8,1,540,260,R,1,NONE,0,0,379040,953
CONTROL_TS_14B,2,practice,R,9,2,740,260,R,1,<rshift>,1,1,381045,521
CONTROL_TS_14B,2,practice,R,10,4,740,460,R,1,<rshift>,1,1,381580,567
CONTROL_TS_14B,3,test,R,1,3,540,460,R,1,NONE,0,0,389191,952
CONTROL_TS_14B,3,test,R,2,2,740,260,R,1,<rshift>,1,1,390197,309
CONTROL_TS_14B,3,test,R,3,1,540,260,P,0,<rshift>,1,0,391205,356
CONTROL_TS_14B,3,test,R,4,3,540,460,R,1,<rshift>,1,1,392204,222
CONTROL_TS_14B,3,test,R,5,1,540,260,R,1,<rshift>,1,1,393200,346
CONTROL_TS_14B,3,test,R,6,4,740,460,R,1,<rshift>,1,1,394200,339
CONTROL_TS_14B,3,test,R,7,3,540,460,P,0,<rshift>,1,0,395199,379
CONTROL_TS_14B,3,test,R,8,4,740,460,P,0,NONE,0,1,396200,954
CONTROL_TS_14B,3,test,R,9,2,740,260,P,0,<rshift>,1,0,397202,333
CONTROL_TS_14B,3,test,R,10,1,540,260,P,0,NONE,0,1,398201,953
CONTROL_TS_14B,3,test,R,11,1,540,260,R,1,<rshift>,1,1,399198,455
CONTROL_TS_14B,3,test,R,12,4,740,460,R,1,<rshift>,1,1,400201,525
CONTROL_TS_14B,3,test,R,13,4,740,460,R,1,<rshift>,1,1,401195,456
CONTROL_TS_14B,3,test,R,14,4,740,460,P,0,NONE,0,1,402203,953
CONTROL_TS_14B,3,test,R,15,4,740,460,R,1,<rshift>,1,1,403199,429
CONTROL_TS_14B,3,test,R,16,1,540,260,R,1,<rshift>,1,1,404205,407
CONTROL_TS_14B,3,test,R,17,2,740,260,R,1,<rshift>,1,1,405197,470
CONTROL_TS_14B,3,test,R,18,3,540,460,R,1,<rshift>,1,1,406200,406
CONTROL_TS_14B,3,test,R,19,2,740,260,R,1,<rshift>,1,1,407200,415
CONTROL_TS_14B,3,test,R,20,1,540,260,R,1,<rshift>,1,1,408201,321
CONTROL_TS_14B,3,test,R,21,4,740,460,R,1,<rshift>,1,1,409203,377
CONTROL_TS_14B,3,test,R,22,2,740,260,R,1,<rshift>,1,1,410201,398
CONTROL_TS_14B,3,test,R,23,2,740,260,R,1,<rshift>,1,1,411202,379
CONTROL_TS_14B,3,test,R,24,4,740,460,R,1,<rshift>,1,1,412195,448
CONTROL_TS_14B,3,test,R,25,1,540,260,P,0,NONE,0,1,413201,953
CONTROL_TS_14B,3,test,R,26,4,740,460,R,1,<rshift>,1,1,414204,294
CONTROL_TS_14B,3,test,R,27,1,540,260,P,0,<rshift>,1,0,415198,326
CONTROL_TS_14B,3,test,R,28,2,740,260,R,1,<rshift>,1,1,416200,378
CONTROL_TS_14B,3,test,R,29,2,740,260,R,1,<rshift>,1,1,417204,614
CONTROL_TS_14B,3,test,R,30,1,540,260,R,1,<rshift>,1,1,418198,554
CONTROL_TS_14B,3,test,R,31,1,540,260,R,1,<rshift>,1,1,419199,526
CONTROL_TS_14B,3,test,R,32,1,540,260,R,1,<rshift>,1,1,420199,472
CONTROL_TS_14B,3,test,R,33,4,740,460,P,0,NONE,0,1,421206,953
CONTROL_TS_14B,3,test,R,34,4,740,460,R,1,<rshift>,1,1,422196,372
CONTROL_TS_14B,3,test,R,35,1,540,260,R,1,<rshift>,1,1,423205,398
CONTROL_TS_14B,3,test,R,36,3,540,460,P,0,<rshift>,1,0,424196,348
CONTROL_TS_14B,3,test,R,37,4,740,460,R,1,<rshift>,1,1,425200,381
CONTROL_TS_14B,3,test,R,38,3,540,460,R,1,<rshift>,1,1,426204,535
CONTROL_TS_14B,3,test,R,39,1,540,260,R,1,<rshift>,1,1,427198,364
CONTROL_TS_14B,3,test,R,40,2,740,260,P,0,<rshift>,1,0,428198,301
CONTROL_TS_14B,3,test,R,41,4,740,460,R,1,<rshift>,1,1,429202,489
CONTROL_TS_14B,3,test,R,42,2,740,260,R,1,<rshift>,1,1,430201,620
CONTROL_TS_14B,3,test,R,43,3,540,460,R,1,<rshift>,1,1,431203,332
CONTROL_TS_14B,3,test,R,44,3,540,460,R,1,<rshift>,1,1,432199,380
CONTROL_TS_14B,3,test,R,45,1,540,260,R,1,<rshift>,1,1,433199,392
CONTROL_TS_14B,3,test,R,46,4,740,460,R,1,<rshift>,1,1,434203,308
CONTROL_TS_14B,3,test,R,47,2,740,260,R,1,<rshift>,1,1,435201,315
CONTROL_TS_14B,3,test,R,48,4,740,460,P,0,NONE,0,1,436202,953
CONTROL_TS_14B,3,test,R,49,3,540,460,R,1,<rshift>,1,1,437201,365
CONTROL_TS_14B,3,test,R,50,4,740,460,R,1,<rshift>,1,1,438193,404
CONTROL_TS_14B,3,test,R,51,2,740,260,R,1,<rshift>,1,1,439198,302
CONTROL_TS_14B,3,test,R,52,2,740,260,R,1,<rshift>,1,1,440203,410
CONTROL_TS_14B,3,test,R,53,4,740,460,R,1,NONE,0,0,441199,952
CONTROL_TS_14B,3,test,R,54,2,740,260,R,1,<rshift>,1,1,442202,382
CONTROL_TS_14B,3,test,R,55,4,740,460,R,1,<rshift>,1,1,443202,404
CONTROL_TS_14B,3,test,R,56,2,740,260,R,1,<rshift>,1,1,444200,416
CONTROL_TS_14B,3,test,R,57,1,540,260,P,0,<rshift>,1,0,445198,344
CONTROL_TS_14B,3,test,R,58,4,740,460,R,1,<rshift>,1,1,446201,371
CONTROL_TS_14B,3,test,R,59,4,740,460,R,1,<rshift>,1,1,447204,366
CONTROL_TS_14B,3,test,R,60,4,740,460,R,1,<rshift>,1,1,448198,331
CONTROL_TS_14B,3,test,R,61,1,540,260,R,1,<rshift>,1,1,449197,555
CONTROL_TS_14B,3,test,R,62,3,540,460,R,1,<rshift>,1,1,450197,476
CONTROL_TS_14B,3,test,R,63,4,740,460,R,1,<rshift>,1,1,451196,343
CONTROL_TS_14B,3,test,R,64,4,740,460,R,1,<rshift>,1,1,452201,380
CONTROL_TS_14B,3,test,R,65,4,740,460,P,0,NONE,0,1,453195,954
CONTROL_TS_14B,3,test,R,66,2,740,260,R,1,<rshift>,1,1,454200,363
CONTROL_TS_14B,3,test,R,67,2,740,260,R,1,<rshift>,1,1,455204,391
CONTROL_TS_14B,3,test,R,68,3,540,460,P,0,NONE,0,1,456203,953
CONTROL_TS_14B,3,test,R,69,3,540,460,R,1,<rshift>,1,1,457198,521
CONTROL_TS_14B,3,test,R,70,3,540,460,R,1,<rshift>,1,1,458203,520
CONTROL_TS_14B,3,test,R,71,1,540,260,P,0,NONE,0,1,459200,952
CONTROL_TS_14B,3,test,R,72,2,740,260,P,0,<rshift>,1,0,460201,362
CONTROL_TS_14B,3,test,R,73,4,740,460,R,1,<rshift>,1,1,461203,469
CONTROL_TS_14B,3,test,R,74,3,540,460,R,1,<rshift>,1,1,462202,399
CONTROL_TS_14B,3,test,R,75,4,740,460,R,1,<rshift>,1,1,463194,420
CONTROL_TS_14B,3,test,R,76,4,740,460,R,1,<rshift>,1,1,464198,407
CONTROL_TS_14B,3,test,R,77,4,740,460,R,1,<rshift>,1,1,465204,457
CONTROL_TS_14B,3,test,R,78,3,540,460,R,1,<rshift>,1,1,466200,656
CONTROL_TS_14B,3,test,R,79,4,740,460,R,1,<rshift>,1,1,467200,569
CONTROL_TS_14B,3,test,R,80,2,740,260,R,1,<rshift>,1,1,468203,356
CONTROL_TS_14B,3,test,R,81,3,540,460,P,0,<rshift>,1,0,469200,295
CONTROL_TS_14B,3,test,R,82,4,740,460,R,1,<rshift>,1,1,470197,328
CONTROL_TS_14B,3,test,R,83,3,540,460,P,0,NONE,0,1,471205,953
CONTROL_TS_14B,3,test,R,84,2,740,260,R,1,<rshift>,1,1,472199,526
CONTROL_TS_14B,3,test,R,85,4,740,460,R,1,<rshift>,1,1,473203,329
CONTROL_TS_14B,3,test,R,86,3,540,460,R,1,<rshift>,1,1,474202,364
CONTROL_TS_14B,3,test,R,87,4,740,460,R,1,<rshift>,1,1,475199,340
CONTROL_TS_14B,3,test,R,88,2,740,260,R,1,<rshift>,1,1,476199,325
CONTROL_TS_14B,3,test,R,89,2,740,260,P,0,NONE,0,1,477197,953
CONTROL_TS_14B,3,test,R,90,1,540,260,R,1,<rshift>,1,1,478201,393
CONTROL_TS_14B,3,test,R,91,1,540,260,R,1,<rshift>,1,1,479201,555
CONTROL_TS_14B,3,test,R,92,3,540,460,R,1,<rshift>,1,1,480203,411
CONTROL_TS_14B,3,test,R,93,3,540,460,R,1,<rshift>,1,1,481205,362
CONTROL_TS_14B,3,test,R,94,4,740,460,R,1,<rshift>,1,1,482197,373
CONTROL_TS_14B,3,test,R,95,3,540,460,R,1,<rshift>,1,1,483199,449
CONTROL_TS_14B,3,test,R,96,3,540,460,R,1,<rshift>,1,1,484198,390
CONTROL_TS_14B,3,test,R,97,2,740,260,R,1,<rshift>,1,1,485200,525
CONTROL_TS_14B,3,test,R,98,3,540,460,R,1,<rshift>,1,1,486203,384
CONTROL_TS_14B,3,test,R,99,1,540,260,R,1,<rshift>,1,1,487203,454
CONTROL_TS_14B,3,test,R,100,2,740,260,R,1,<rshift>,1,1,488205,371
CONTROL_TS_14B,3,test,R,101,2,740,260,P,0,<rshift>,1,0,489200,423
CONTROL_TS_14B,3,test,R,102,3,540,460,R,1,<rshift>,1,1,490203,393
CONTROL_TS_14B,3,test,R,103,4,740,460,R,1,<rshift>,1,1,491201,278
CONTROL_TS_14B,3,test,R,104,3,540,460,R,1,<rshift>,1,1,492203,417
CONTROL_TS_14B,3,test,R,105,4,740,460,R,1,<rshift>,1,1,493202,380
CONTROL_TS_14B,3,test,R,106,3,540,460,R,1,<rshift>,1,1,494204,396
CONTROL_TS_14B,3,test,R,107,1,540,260,R,1,<rshift>,1,1,495199,438
CONTROL_TS_14B,3,test,R,108,3,540,460,R,1,<rshift>,1,1,496199,477
CONTROL_TS_14B,3,test,R,109,1,540,260,R,1,<rshift>,1,1,497198,483
CONTROL_TS_14B,3,test,R,110,4,740,460,R,1,<rshift>,1,1,498201,374
CONTROL_TS_14B,3,test,R,111,2,740,260,R,1,<rshift>,1,1,499200,368
CONTROL_TS_14B,3,test,R,112,4,740,460,R,1,<rshift>,1,1,500198,404
CONTROL_TS_14B,3,test,R,113,2,740,260,R,1,<rshift>,1,1,501198,425
CONTROL_TS_14B,3,test,R,114,4,740,460,R,1,<rshift>,1,1,502196,383
CONTROL_TS_14B,3,test,R,115,2,740,260,P,0,NONE,0,1,503206,952
CONTROL_TS_14B,3,test,R,116,3,540,460,R,1,<rshift>,1,1,504203,388
CONTROL_TS_14B,3,test,R,117,4,740,460,R,1,<rshift>,1,1,505200,289
CONTROL_TS_14B,3,test,R,118,4,740,460,R,1,<rshift>,1,1,506201,377
CONTROL_TS_14B,3,test,R,119,3,540,460,R,1,<rshift>,1,1,507199,347
CONTROL_TS_14B,3,test,R,120,2,740,260,R,1,<rshift>,1,1,508206,336
CONTROL_TS_14B,3,test,R,121,4,740,460,R,1,<rshift>,1,1,509201,285
CONTROL_TS_14B,3,test,R,122,4,740,460,P,0,<rshift>,1,0,510202,387
CONTROL_TS_14B,3,test,R,123,3,540,460,R,1,<rshift>,1,1,511200,592
CONTROL_TS_14B,3,test,R,124,4,740,460,P,0,NONE,0,1,512203,952
CONTROL_TS_14B,3,test,R,125,1,540,260,R,1,<rshift>,1,1,513201,437
CONTROL_TS_14B,3,test,R,126,4,740,460,R,1,<rshift>,1,1,514199,500
CONTROL_TS_14B,3,test,R,127,3,540,460,P,0,<rshift>,1,0,515201,379
CONTROL_TS_14B,3,test,R,128,1,540,260,R,1,<rshift>,1,1,516204,472
CONTROL_TS_14B,3,test,R,129,3,540,460,R,1,<rshift>,1,1,517203,521
CONTROL_TS_14B,3,test,R,130,4,740,460,P,0,NONE,0,1,518201,952
CONTROL_TS_14B,3,test,R,131,1,540,260,R,1,<rshift>,1,1,519204,489
CONTROL_TS_14B,3,test,R,132,2,740,260,R,1,<rshift>,1,1,520202,375
CONTROL_TS_14B,3,test,R,133,4,740,460,R,1,<rshift>,1,1,521198,426
CONTROL_TS_14B,3,test,R,134,3,540,460,R,1,<rshift>,1,1,522198,380
CONTROL_TS_14B,3,test,R,135,4,740,460,R,1,<rshift>,1,1,523199,362
CONTROL_TS_14B,3,test,R,136,4,740,460,P,0,NONE,0,1,524200,953
CONTROL_TS_14B,3,test,R,137,1,540,260,R,1,<rshift>,1,1,525199,325
CONTROL_TS_14B,3,test,R,138,4,740,460,R,1,<rshift>,1,1,526197,479
CONTROL_TS_14B,3,test,R,139,4,740,460,R,1,NONE,0,0,527201,953
CONTROL_TS_14B,3,test,R,140,1,540,260,P,0,NONE,0,1,528193,954
CONTROL_TS_14B,3,test,R,141,4,740,460,R,1,<rshift>,1,1,529199,617
CONTROL_TS_14B,3,test,R,142,4,740,460,R,1,<rshift>,1,1,530195,680
CONTROL_TS_14B,3,test,R,143,1,540,260,R,1,<rshift>,1,1,531205,355
CONTROL_TS_14B,3,test,R,144,4,740,460,R,1,<rshift>,1,1,532201,367
CONTROL_TS_14B,3,test,R,145,3,540,460,R,1,<rshift>,1,1,533203,375
CONTROL_TS_14B,3,test,R,146,4,740,460,R,1,<rshift>,1,1,534201,329
CONTROL_TS_14B,3,test,R,147,1,540,260,P,0,<rshift>,1,0,535203,268
CONTROL_TS_14B,3,test,R,148,4,740,460,R,1,<rshift>,1,1,536204,550
CONTROL_TS_14B,3,test,R,149,4,740,460,R,1,<rshift>,1,1,537207,461
CONTROL_TS_14B,3,test,R,150,2,740,260,P,0,<rshift>,1,0,538200,430
CONTROL_TS_14B,3,test,R,151,4,740,460,R,1,<rshift>,1,1,539199,501
CONTROL_TS_14B,3,test,R,152,3,540,460,R,1,<rshift>,1,1,540196,371
CONTROL_TS_14B,3,test,R,153,2,740,260,R,1,<rshift>,1,1,541197,521
CONTROL_TS_14B,3,test,R,154,1,540,260,P,0,NONE,0,1,542199,952
CONTROL_TS_14B,3,test,R,155,3,540,460,R,1,<rshift>,1,1,543199,399
CONTROL_TS_14B,3,test,R,156,3,540,460,R,1,<rshift>,1,1,544198,540
CONTROL_TS_14B,3,test,R,157,2,740,260,R,1,<rshift>,1,1,545200,371
CONTROL_TS_14B,3,test,R,158,2,740,260,R,1,NONE,0,0,546201,954
CONTROL_TS_14B,3,test,R,159,2,740,260,R,1,<rshift>,1,1,547203,380
CONTROL_TS_14B,3,test,R,160,2,740,260,P,0,NONE,0,1,548205,953
CONTROL_TS_14B,3,test,R,161,3,540,460,R,1,<rshift>,1,1,549203,437
CONTROL_TS_14B,3,test,R,162,4,740,460,R,1,<rshift>,1,1,550201,351
CONTROL_TS_14B,3,test,R,163,3,540,460,P,0,<rshift>,1,0,551202,333
CONTROL_TS_14B,3,test,R,164,2,740,260,R,1,<rshift>,1,1,552201,464
CONTROL_TS_14B,3,test,R,165,3,540,460,P,0,NONE,0,1,553204,952
CONTROL_TS_14B,3,test,R,166,4,740,460,R,1,<rshift>,1,1,554197,403
CONTROL_TS_14B,3,test,R,167,4,740,460,P,0,NONE,0,1,555197,953
CONTROL_TS_14B,3,test,R,168,3,540,460,R,1,<rshift>,1,1,556198,363
CONTROL_TS_14B,3,test,R,169,3,540,460,R,1,<rshift>,1,1,557204,558
CONTROL_TS_14B,3,test,R,170,2,740,260,R,1,<rshift>,1,1,558195,532
CONTROL_TS_14B,3,test,R,171,3,540,460,R,1,<rshift>,1,1,559204,362
CONTROL_TS_14B,3,test,R,172,4,740,460,R,1,<rshift>,1,1,560199,393
CONTROL_TS_14B,3,test,R,173,1,540,260,R,1,<rshift>,1,1,561204,465
CONTROL_TS_14B,3,test,R,174,3,540,460,R,1,<rshift>,1,1,562204,329
CONTROL_TS_14B,3,test,R,175,4,740,460,R,1,<rshift>,1,1,563199,333
CONTROL_TS_14B,3,test,R,176,3,540,460,R,1,<rshift>,1,1,564202,357
CONTROL_TS_14B,3,test,R,177,4,740,460,R,1,<rshift>,1,1,565197,364
CONTROL_TS_14B,3,test,R,178,3,540,460,R,1,<rshift>,1,1,566201,369
CONTROL_TS_14B,3,test,R,179,3,540,460,R,1,<rshift>,1,1,567198,325
CONTROL_TS_14B,3,test,R,180,1,540,260,P,0,NONE,0,1,568199,952
CONTROL_TS_14B,3,test,R,181,3,540,460,R,1,<rshift>,1,1,569196,375
CONTROL_TS_14B,3,test,R,182,4,740,460,R,1,<rshift>,1,1,570197,433
CONTROL_TS_14B,3,test,R,183,4,740,460,R,1,<rshift>,1,1,571194,415
CONTROL_TS_14B,3,test,R,184,1,540,260,R,1,<rshift>,1,1,572206,452
CONTROL_TS_14B,3,test,R,185,2,740,260,R,1,<rshift>,1,1,573202,407
CONTROL_TS_14B,3,test,R,186,3,540,460,R,1,<rshift>,1,1,574204,349
CONTROL_TS_14B,3,test,R,187,3,540,460,R,1,<rshift>,1,1,575199,352
CONTROL_TS_14B,3,test,R,188,4,740,460,R,1,<rshift>,1,1,576204,318
CONTROL_TS_14B,3,test,R,189,1,540,260,R,1,<rshift>,1,1,577203,279
CONTROL_TS_14B,3,test,R,190,3,540,460,R,1,<rshift>,1,1,578204,361
CONTROL_TS_14B,3,test,R,191,3,540,460,R,1,NONE,0,0,579205,953
CONTROL_TS_14B,3,test,R,192,2,740,260,R,1,<rshift>,1,1,580198,313
CONTROL_TS_14B,3,test,R,193,2,740,260,P,0,NONE,0,1,581195,953
CONTROL_TS_14B,3,test,R,194,4,740,460,R,1,<rshift>,1,1,582195,351
CONTROL_TS_14B,3,test,R,195,2,740,260,P,0,NONE,0,1,583200,953
CONTROL_TS_14B,3,test,R,196,2,740,260,R,1,<rshift>,1,1,584201,461
CONTROL_TS_14B,3,test,R,197,1,540,260,P,0,NONE,0,1,585200,953
CONTROL_TS_14B,3,test,R,198,2,740,260,R,1,<rshift>,1,1,586202,351
CONTROL_TS_14B,3,test,R,199,1,540,260,R,1,<rshift>,1,1,587198,488
CONTROL_TS_14B,3,test,R,200,3,540,460,R,1,<rshift>,1,1,588197,363
CONTROL_TS_14B,3,test,R,201,2,740,260,P,0,<rshift>,1,0,589204,349
CONTROL_TS_14B,3,test,R,202,2,740,260,R,1,<rshift>,1,1,590201,712
CONTROL_TS_14B,3,test,R,203,2,740,260,R,1,<rshift>,1,1,591199,409
CONTROL_TS_14B,3,test,R,204,1,540,260,R,1,<rshift>,1,1,592200,375
CONTROL_TS_14B,3,test,R,205,3,540,460,R,1,<rshift>,1,1,593203,287
CONTROL_TS_14B,3,test,R,206,4,740,460,R,1,<rshift>,1,1,594201,281
CONTROL_TS_14B,3,test,R,207,3,540,460,R,1,<rshift>,1,1,595203,307
CONTROL_TS_14B,3,test,R,208,2,740,260,R,1,<rshift>,1,1,596202,289
CONTROL_TS_14B,3,test,R,209,3,540,460,R,1,<rshift>,1,1,597199,331
CONTROL_TS_14B,3,test,R,210,2,740,260,R,1,<rshift>,1,1,598200,357
CONTROL_TS_14B,3,test,R,211,1,540,260,R,1,<rshift>,1,1,599204,369
CONTROL_TS_14B,3,test,R,212,3,540,460,R,1,<rshift>,1,1,600204,320
CONTROL_TS_14B,3,test,R,213,2,740,260,R,1,<rshift>,1,1,601197,311
CONTROL_TS_14B,3,test,R,214,3,540,460,R,1,<rshift>,1,1,602201,316
CONTROL_TS_14B,3,test,R,215,1,540,260,P,0,<rshift>,1,0,603201,343
CONTROL_TS_14B,3,test,R,216,1,540,260,R,1,<rshift>,1,1,604207,707
CONTROL_TS_14B,3,test,R,217,2,740,260,R,1,<rshift>,1,1,605198,335
CONTROL_TS_14B,3,test,R,218,3,540,460,R,1,<rshift>,1,1,606198,283
CONTROL_TS_14B,3,test,R,219,2,740,260,R,1,<rshift>,1,1,607198,376
CONTROL_TS_14B,3,test,R,220,4,740,460,P,0,<rshift>,1,0,608199,301
CONTROL_TS_14B,3,test,R,221,1,540,260,R,1,<rshift>,1,1,609202,574
CONTROL_TS_14B,3,test,R,222,2,740,260,R,1,<rshift>,1,1,610198,372
CONTROL_TS_14B,3,test,R,223,3,540,460,R,1,<rshift>,1,1,611202,337
CONTROL_TS_14B,3,test,R,224,4,740,460,R,1,<rshift>,1,1,612196,381
CONTROL_TS_14B,3,test,R,225,4,740,460,R,1,<rshift>,1,1,613201,435
CONTROL_TS_14B,3,test,R,226,4,740,460,P,0,<rshift>,1,0,614204,396
CONTROL_TS_14B,3,test,R,227,2,740,260,R,1,<rshift>,1,1,615198,345
CONTROL_TS_14B,3,test,R,228,3,540,460,R,1,<rshift>,1,1,616201,282
CONTROL_TS_14B,3,test,R,229,3,540,460,P,0,<rshift>,1,0,617201,427
CONTROL_TS_14B,3,test,R,230,4,740,460,R,1,<rshift>,1,1,618199,378
CONTROL_TS_14B,3,test,R,231,1,540,260,P,0,<rshift>,1,0,619200,282
CONTROL_TS_14B,3,test,R,232,4,740,460,R,1,<rshift>,1,1,620204,344
CONTROL_TS_14B,3,test,R,233,2,740,260,R,1,<rshift>,1,1,621200,343
CONTROL_TS_14B,3,test,R,234,4,740,460,R,1,<rshift>,1,1,622201,574
CONTROL_TS_14B,3,test,R,235,3,540,460,R,1,<rshift>,1,1,623201,294
CONTROL_TS_14B,3,test,R,236,1,540,260,R,1,<rshift>,1,1,624198,377
CONTROL_TS_14B,3,test,R,237,4,740,460,R,1,<rshift>,1,1,625198,384
CONTROL_TS_14B,3,test,R,238,3,540,460,R,1,<rshift>,1,1,626204,448
CONTROL_TS_14B,3,test,R,239,3,540,460,R,1,<rshift>,1,1,627198,441
CONTROL_TS_14B,3,test,R,240,3,540,460,R,1,<rshift>,1,1,628200,375
CONTROL_TS_14B,3,test,R,241,1,540,260,R,1,<rshift>,1,1,629200,527
CONTROL_TS_14B,3,test,R,242,4,740,460,R,1,<rshift>,1,1,630202,368
CONTROL_TS_14B,3,test,R,243,1,540,260,P,0,<rshift>,1,0,631202,311
CONTROL_TS_14B,3,test,R,244,4,740,460,P,0,<rshift>,1,0,632201,361
CONTROL_TS_14B,3,test,R,245,1,540,260,R,1,<rshift>,1,1,633203,487
CONTROL_TS_14B,3,test,R,246,2,740,260,R,1,<rshift>,1,1,634202,345
CONTROL_TS_14B,3,test,R,247,1,540,260,R,1,<rshift>,1,1,635201,395
CONTROL_TS_14B,3,test,R,248,1,540,260,P,0,NONE,0,1,636195,953
CONTROL_TS_14B,3,test,R,249,3,540,460,R,1,<rshift>,1,1,637196,328
CONTROL_TS_14B,3,test,R,250,1,540,260,R,1,<rshift>,1,1,638201,500
CONTROL_TS_14B,3,test,R,251,4,740,460,R,1,<rshift>,1,1,639198,329
CONTROL_TS_14B,3,test,R,252,1,540,260,R,1,<rshift>,1,1,640202,329
CONTROL_TS_14B,3,test,R,253,3,540,460,R,1,<rshift>,1,1,641194,309
CONTROL_TS_14B,3,test,R,254,4,740,460,P,0,<rshift>,1,0,642200,331
CONTROL_TS_14B,3,test,R,255,4,740,460,P,0,NONE,0,1,643202,953
CONTROL_TS_14B,3,test,R,256,2,740,260,P,0,NONE,0,1,644202,953
CONTROL_TS_14B,3,test,R,257,4,740,460,R,1,<rshift>,1,1,645198,709
CONTROL_TS_14B,3,test,R,258,3,540,460,R,1,<rshift>,1,1,646199,403
CONTROL_TS_14B,3,test,R,259,3,540,460,R,1,<rshift>,1,1,647197,398
CONTROL_TS_14B,3,test,R,260,3,540,460,R,1,<rshift>,1,1,648198,344
CONTROL_TS_14B,3,test,R,261,1,540,260,R,1,<rshift>,1,1,649198,331
CONTROL_TS_14B,3,test,R,262,3,540,460,R,1,<rshift>,1,1,650202,394
CONTROL_TS_14B,3,test,R,263,3,540,460,R,1,<rshift>,1,1,651203,380
CONTROL_TS_14B,3,test,R,264,2,740,260,R,1,<rshift>,1,1,652202,419
CONTROL_TS_14B,3,test,R,265,2,740,260,R,1,<rshift>,1,1,653201,391
CONTROL_TS_14B,3,test,R,266,3,540,460,R,1,<rshift>,1,1,654202,392
CONTROL_TS_14B,3,test,R,267,1,540,260,R,1,<rshift>,1,1,655201,370
CONTROL_TS_14B,3,test,R,268,2,740,260,R,1,<rshift>,1,1,656199,391
CONTROL_TS_14B,3,test,R,269,2,740,260,R,1,<rshift>,1,1,657203,407
CONTROL_TS_14B,3,test,R,270,1,540,260,R,1,<rshift>,1,1,658196,375
CONTROL_TS_14B,3,test,R,271,3,540,460,P,0,<rshift>,1,0,659203,335
CONTROL_TS_14B,3,test,R,272,4,740,460,R,1,<rshift>,1,1,660200,364
CONTROL_TS_14B,3,test,R,273,2,740,260,R,1,<rshift>,1,1,661200,372
CONTROL_TS_14B,3,test,R,274,2,740,260,R,1,<rshift>,1,1,662202,352
CONTROL_TS_14B,3,test,R,275,2,740,260,R,1,<rshift>,1,1,663202,431
CONTROL_TS_14B,3,test,R,276,1,540,260,R,1,<rshift>,1,1,664202,361
CONTROL_TS_14B,3,test,R,277,4,740,460,R,1,<rshift>,1,1,665203,308
CONTROL_TS_14B,3,test,R,278,2,740,260,P,0,NONE,0,1,666202,952
CONTROL_TS_14B,3,test,R,279,4,740,460,P,0,NONE,0,1,667199,953
CONTROL_TS_14B,3,test,R,280,3,540,460,R,1,<rshift>,1,1,668203,341
CONTROL_TS_14B,3,test,R,281,1,540,260,R,1,<rshift>,1,1,669201,333
CONTROL_TS_14B,3,test,R,282,4,740,460,R,1,<rshift>,1,1,670201,359
CONTROL_TS_14B,3,test,R,283,2,740,260,P,0,<rshift>,1,0,671206,288
CONTROL_TS_14B,3,test,R,284,1,540,260,R,1,<rshift>,1,1,672203,376
CONTROL_TS_14B,3,test,R,285,3,540,460,R,1,<rshift>,1,1,673202,280
CONTROL_TS_14B,3,test,R,286,1,540,260,R,1,<rshift>,1,1,674204,449
CONTROL_TS_14B,3,test,R,287,1,540,260,R,1,<rshift>,1,1,675200,519
CONTROL_TS_14B,3,test,R,288,4,740,460,P,0,NONE,0,1,676198,952
CONTROL_TS_14B,3,test,R,289,4,740,460,R,1,<rshift>,1,1,677204,494
CONTROL_TS_14B,3,test,R,290,1,540,260,R,1,<rshift>,1,1,678193,373
CONTROL_TS_14B,3,test,R,291,2,740,260,R,1,<rshift>,1,1,679202,382
CONTROL_TS_14B,3,test,R,292,3,540,460,R,1,<rshift>,1,1,680200,350
CONTROL_TS_14B,3,test,R,293,3,540,460,R,1,<rshift>,1,1,681199,475
CONTROL_TS_14B,3,test,R,294,2,740,260,R,1,<rshift>,1,1,682200,521
CONTROL_TS_14B,3,test,R,295,4,740,460,P,0,NONE,0,1,683203,953
CONTROL_TS_14B,3,test,R,296,1,540,260,R,1,<rshift>,1,1,684197,298
CONTROL_TS_14B,3,test,R,297,4,740,460,P,0,NONE,0,1,685196,953
CONTROL_TS_14B,3,test,R,298,4,740,460,P,0,NONE,0,1,686201,952
CONTROL_TS_14B,3,test,R,299,1,540,260,P,0,<rshift>,1,0,687200,402
CONTROL_TS_14B,3,test,R,300,2,740,260,R,1,<rshift>,1,1,688199,460
