subnum,block,type,correctresponse,trial,choice,x,y,stim,present,response,responded,corr,starttime,rt
Control_TS_3_B,0,practice,P,1,4,820,550,P,1,NONE,0,0,5520,950
Control_TS_3_B,0,practice,P,2,3,620,550,P,1,NONE,0,0,7515,951
Control_TS_3_B,0,practice,P,3,4,820,550,P,1,<rshift>,1,1,9510,687
Control_TS_3_B,0,practice,P,4,2,820,350,R,0,<rshift>,1,0,10211,345
Control_TS_3_B,0,practice,P,5,1,620,350,P,1,<rshift>,1,1,11615,414
Control_TS_3_B,0,practice,P,6,4,820,550,P,1,<rshift>,1,1,12058,439
Control_TS_3_B,0,practice,P,7,4,820,550,P,1,NONE,0,0,12525,950
Control_TS_3_B,0,practice,P,8,1,620,350,P,1,<rshift>,1,1,14518,344
Control_TS_3_B,0,practice,P,9,3,620,550,P,1,<rshift>,1,1,14890,448
Control_TS_3_B,0,practice,P,10,1,620,350,R,0,<rshift>,1,0,15366,419
Control_TS_3_B,1,test,P,1,3,620,550,P,1,<rshift>,1,1,19063,516
Control_TS_3_B,1,test,P,2,4,820,550,R,0,<rshift>,1,0,20063,342
Control_TS_3_B,1,test,P,3,2,820,350,P,1,<rshift>,1,1,21063,363
Control_TS_3_B,1,test,P,4,3,620,550,P,1,<rshift>,1,1,22063,394
Control_TS_3_B,1,test,P,5,4,820,550,P,1,<rshift>,1,1,23063,358
Control_TS_3_B,1,test,P,6,1,620,350,P,1,<rshift>,1,1,24063,369
Control_TS_3_B,1,test,P,7,3,620,550,P,1,<rshift>,1,1,25063,312
Control_TS_3_B,1,test,P,8,4,820,550,P,1,<rshift>,1,1,26063,330
Control_TS_3_B,1,test,P,9,3,620,550,P,1,<rshift>,1,1,27063,310
Control_TS_3_B,1,test,P,10,4,820,550,P,1,<rshift>,1,1,28063,343
Control_TS_3_B,1,test,P,11,2,820,350,R,0,NONE,0,1,29063,950
Control_TS_3_B,1,test,P,12,3,620,550,P,1,<rshift>,1,1,30063,370
Control_TS_3_B,1,test,P,13,4,820,550,R,0,<rshift>,1,0,31063,334
Control_TS_3_B,1,test,P,14,4,820,550,P,1,<rshift>,1,1,32063,450
Control_TS_3_B,1,test,P,15,4,820,550,P,1,<rshift>,1,1,33063,320
Control_TS_3_B,1,test,P,16,1,620,350,P,1,<rshift>,1,1,34063,339
Control_TS_3_B,1,test,P,17,3,620,550,P,1,<rshift>,1,1,35063,361
Control_TS_3_B,1,test,P,18,2,820,350,P,1,<rshift>,1,1,36063,349
Control_TS_3_B,1,test,P,19,4,820,550,P,1,<rshift>,1,1,37063,445
Control_TS_3_B,1,test,P,20,3,620,550,R,0,<rshift>,1,0,38063,311
Control_TS_3_B,1,test,P,21,2,820,350,P,1,<rshift>,1,1,39063,319
Control_TS_3_B,1,test,P,22,2,820,350,P,1,<rshift>,1,1,40063,337
Control_TS_3_B,1,test,P,23,4,820,550,P,1,<rshift>,1,1,41063,316
Control_TS_3_B,1,test,P,24,2,820,350,R,0,<rshift>,1,0,42063,283
Control_TS_3_B,1,test,P,25,2,820,350,P,1,<rshift>,1,1,43063,321
Control_TS_3_B,1,test,P,26,2,820,350,P,1,<rshift>,1,1,44063,343
Control_TS_3_B,1,test,P,27,3,620,550,R,0,<rshift>,1,0,45063,385
Control_TS_3_B,1,test,P,28,2,820,350,P,1,<rshift>,1,1,46063,365
Control_TS_3_B,1,test,P,29,1,620,350,P,1,<rshift>,1,1,47063,394
Control_TS_3_B,1,test,P,30,1,620,350,P,1,<rshift>,1,1,48063,331
Control_TS_3_B,1,test,P,31,4,820,550,P,1,<rshift>,1,1,49063,248
Control_TS_3_B,1,test,P,32,4,820,550,P,1,<rshift>,1,1,50063,362
Control_TS_3_B,1,test,P,33,1,620,350,R,0,NONE,0,1,51063,950
Control_TS_3_B,1,test,P,34,2,820,350,P,1,<rshift>,1,1,52063,430
Control_TS_3_B,1,test,P,35,1,620,350,P,1,<rshift>,1,1,53063,318
Control_TS_3_B,1,test,P,36,4,820,550,P,1,<rshift>,1,1,54063,327
Control_TS_3_B,1,test,P,37,1,620,350,P,1,<rshift>,1,1,55063,319
Control_TS_3_B,1,test,P,38,4,820,550,P,1,<rshift>,1,1,56063,297
Control_TS_3_B,1,test,P,39,4,820,550,P,1,<rshift>,1,1,57063,351
Control_TS_3_B,1,test,P,40,1,620,350,P,1,<rshift>,1,1,58063,292
Control_TS_3_B,1,test,P,41,4,820,550,P,1,<rshift>,1,1,59063,295
Control_TS_3_B,1,test,P,42,1,620,350,P,1,<rshift>,1,1,60063,291
Control_TS_3_B,1,test,P,43,4,820,550,P,1,<rshift>,1,1,61063,253
Control_TS_3_B,1,test,P,44,1,620,350,P,1,<rshift>,1,1,62063,283
Control_TS_3_B,1,test,P,45,2,820,350,P,1,<rshift>,1,1,63063,536
Control_TS_3_B,1,test,P,46,4,820,550,P,1,<rshift>,1,1,64063,367
Control_TS_3_B,1,test,P,47,4,820,550,P,1,<rshift>,1,1,65063,328
Control_TS_3_B,1,test,P,48,4,820,550,R,0,<rshift>,1,0,66063,347
Control_TS_3_B,1,test,P,49,1,620,350,R,0,<rshift>,1,0,67063,418
Control_TS_3_B,1,test,P,50,1,620,350,R,0,NONE,0,1,68063,950
Control_TS_3_B,1,test,P,51,3,620,550,P,1,<rshift>,1,1,69063,418
Control_TS_3_B,1,test,P,52,1,620,350,P,1,<rshift>,1,1,70063,359
Control_TS_3_B,1,test,P,53,2,820,350,P,1,<rshift>,1,1,71062,402
Control_TS_3_B,1,test,P,54,3,620,550,R,0,<rshift>,1,0,72063,347
Control_TS_3_B,1,test,P,55,3,620,550,P,1,<rshift>,1,1,73063,399
Control_TS_3_B,1,test,P,56,4,820,550,P,1,<rshift>,1,1,74063,353
Control_TS_3_B,1,test,P,57,2,820,350,P,1,<rshift>,1,1,75063,389
Control_TS_3_B,1,test,P,58,2,820,350,P,1,<rshift>,1,1,76063,335
Control_TS_3_B,1,test,P,59,1,620,350,P,1,<rshift>,1,1,77063,335
Control_TS_3_B,1,test,P,60,4,820,550,P,1,<rshift>,1,1,78063,349
Control_TS_3_B,1,test,P,61,3,620,550,P,1,<rshift>,1,1,79063,322
Control_TS_3_B,1,test,P,62,4,820,550,P,1,<rshift>,1,1,80063,336
Control_TS_3_B,1,test,P,63,2,820,350,P,1,<rshift>,1,1,81063,266
Control_TS_3_B,1,test,P,64,4,820,550,P,1,<rshift>,1,1,82063,367
Control_TS_3_B,1,test,P,65,4,820,550,P,1,<rshift>,1,1,83063,321
Control_TS_3_B,1,test,P,66,2,820,350,P,1,<rshift>,1,1,84063,363
Control_TS_3_B,1,test,P,67,2,820,350,P,1,<rshift>,1,1,85063,400
Control_TS_3_B,1,test,P,68,2,820,350,R,0,<rshift>,1,0,86063,309
Control_TS_3_B,1,test,P,69,2,820,350,P,1,<rshift>,1,1,87063,316
Control_TS_3_B,1,test,P,70,2,820,350,P,1,<rshift>,1,1,88063,331
Control_TS_3_B,1,test,P,71,1,620,350,R,0,<rshift>,1,0,89063,514
Control_TS_3_B,1,test,P,72,4,820,550,P,1,<rshift>,1,1,90063,364
Control_TS_3_B,1,test,P,73,1,620,350,P,1,<rshift>,1,1,91063,398
Control_TS_3_B,1,test,P,74,1,620,350,R,0,<rshift>,1,0,92063,560
Control_TS_3_B,1,test,P,75,3,620,550,P,1,<rshift>,1,1,93063,464
Control_TS_3_B,1,test,P,76,3,620,550,P,1,<rshift>,1,1,94063,329
Control_TS_3_B,1,test,P,77,3,620,550,P,1,<rshift>,1,1,95063,365
Control_TS_3_B,1,test,P,78,3,620,550,P,1,<rshift>,1,1,96063,343
Control_TS_3_B,1,test,P,79,1,620,350,P,1,<rshift>,1,1,97063,374
Control_TS_3_B,1,test,P,80,2,820,350,P,1,<rshift>,1,1,98063,349
Control_TS_3_B,1,test,P,81,2,820,350,P,1,<rshift>,1,1,99063,661
Control_TS_3_B,1,test,P,82,3,620,550,P,1,<rshift>,1,1,100063,356
Control_TS_3_B,1,test,P,83,4,820,550,P,1,<rshift>,1,1,101063,310
Control_TS_3_B,1,test,P,84,1,620,350,P,1,<rshift>,1,1,102063,291
Control_TS_3_B,1,test,P,85,1,620,350,P,1,<rshift>,1,1,103063,352
Control_TS_3_B,1,test,P,86,2,820,350,P,1,<rshift>,1,1,104063,285
Control_TS_3_B,1,test,P,87,4,820,550,P,1,<rshift>,1,1,105063,299
Control_TS_3_B,1,test,P,88,4,820,550,R,0,NONE,0,1,106063,950
Control_TS_3_B,1,test,P,89,3,620,550,R,0,<rshift>,1,0,107063,301
Control_TS_3_B,1,test,P,90,2,820,350,P,1,<rshift>,1,1,108063,277
Control_TS_3_B,1,test,P,91,3,620,550,P,1,<rshift>,1,1,109063,397
Control_TS_3_B,1,test,P,92,1,620,350,P,1,<rshift>,1,1,110063,305
Control_TS_3_B,1,test,P,93,2,820,350,P,1,<rshift>,1,1,111063,335
Control_TS_3_B,1,test,P,94,1,620,350,R,0,NONE,0,1,112063,950
Control_TS_3_B,1,test,P,95,4,820,550,R,0,<rshift>,1,0,113063,343
Control_TS_3_B,1,test,P,96,2,820,350,P,1,<rshift>,1,1,114063,664
Control_TS_3_B,1,test,P,97,4,820,550,P,1,<rshift>,1,1,115063,661
Control_TS_3_B,1,test,P,98,1,620,350,P,1,<rshift>,1,1,116063,408
Control_TS_3_B,1,test,P,99,1,620,350,P,1,<rshift>,1,1,117063,333
Control_TS_3_B,1,test,P,100,3,620,550,P,1,<rshift>,1,1,118063,345
Control_TS_3_B,1,test,P,101,1,620,350,P,1,<rshift>,1,1,119063,349
Control_TS_3_B,1,test,P,102,4,820,550,P,1,<rshift>,1,1,120063,363
Control_TS_3_B,1,test,P,103,1,620,350,P,1,<rshift>,1,1,121063,421
Control_TS_3_B,1,test,P,104,2,820,350,P,1,<rshift>,1,1,122063,397
Control_TS_3_B,1,test,P,105,2,820,350,P,1,<rshift>,1,1,123063,515
Control_TS_3_B,1,test,P,106,4,820,550,P,1,<rshift>,1,1,124063,346
Control_TS_3_B,1,test,P,107,3,620,550,P,1,<rshift>,1,1,125063,343
Control_TS_3_B,1,test,P,108,4,820,550,P,1,<rshift>,1,1,126063,307
Control_TS_3_B,1,test,P,109,1,620,350,P,1,<rshift>,1,1,127063,342
Control_TS_3_B,1,test,P,110,1,620,350,P,1,<rshift>,1,1,128063,369
Control_TS_3_B,1,test,P,111,1,620,350,R,0,<rshift>,1,0,129063,318
Control_TS_3_B,1,test,P,112,1,620,350,P,1,<rshift>,1,1,130063,375
Control_TS_3_B,1,test,P,113,3,620,550,P,1,<rshift>,1,1,131063,356
Control_TS_3_B,1,test,P,114,3,620,550,P,1,<rshift>,1,1,132063,334
Control_TS_3_B,1,test,P,115,2,820,350,P,1,<rshift>,1,1,133063,577
Control_TS_3_B,1,test,P,116,2,820,350,P,1,<rshift>,1,1,134064,576
Control_TS_3_B,1,test,P,117,2,820,350,P,1,<rshift>,1,1,135063,450
Control_TS_3_B,1,test,P,118,1,620,350,R,0,<rshift>,1,0,136063,425
Control_TS_3_B,1,test,P,119,2,820,350,P,1,<rshift>,1,1,137063,306
Control_TS_3_B,1,test,P,120,2,820,350,P,1,<rshift>,1,1,138063,391
Control_TS_3_B,1,test,P,121,4,820,550,P,1,<rshift>,1,1,139063,493
Control_TS_3_B,1,test,P,122,2,820,350,R,0,NONE,0,1,140063,950
Control_TS_3_B,1,test,P,123,3,620,550,P,1,<rshift>,1,1,141063,412
Control_TS_3_B,1,test,P,124,2,820,350,P,1,<rshift>,1,1,142063,366
Control_TS_3_B,1,test,P,125,4,820,550,R,0,NONE,0,1,143063,950
Control_TS_3_B,1,test,P,126,1,620,350,P,1,<rshift>,1,1,144063,316
Control_TS_3_B,1,test,P,127,1,620,350,R,0,NONE,0,1,145063,950
Control_TS_3_B,1,test,P,128,3,620,550,P,1,<rshift>,1,1,146063,396
Control_TS_3_B,1,test,P,129,4,820,550,P,1,<rshift>,1,1,147063,396
Control_TS_3_B,1,test,P,130,2,820,350,P,1,<rshift>,1,1,148063,403
Control_TS_3_B,1,test,P,131,3,620,550,R,0,<rshift>,1,0,149063,326
Control_TS_3_B,1,test,P,132,4,820,550,P,1,<rshift>,1,1,150063,295
Control_TS_3_B,1,test,P,133,3,620,550,P,1,<rshift>,1,1,151063,416
Control_TS_3_B,1,test,P,134,2,820,350,P,1,<rshift>,1,1,152063,368
Control_TS_3_B,1,test,P,135,4,820,550,P,1,<rshift>,1,1,153063,409
Control_TS_3_B,1,test,P,136,3,620,550,P,1,<rshift>,1,1,154063,295
Control_TS_3_B,1,test,P,137,3,620,550,R,0,<rshift>,1,0,155063,387
Control_TS_3_B,1,test,P,138,4,820,550,R,0,NONE,0,1,156063,950
Control_TS_3_B,1,test,P,139,4,820,550,P,1,<rshift>,1,1,157063,396
Control_TS_3_B,1,test,P,140,4,820,550,P,1,<rshift>,1,1,158063,362
Control_TS_3_B,1,test,P,141,1,620,350,P,1,<rshift>,1,1,159063,413
Control_TS_3_B,1,test,P,142,1,620,350,R,0,NONE,0,1,160063,950
Control_TS_3_B,1,test,P,143,1,620,350,P,1,<rshift>,1,1,161063,317
Control_TS_3_B,1,test,P,144,1,620,350,P,1,<rshift>,1,1,162063,352
Control_TS_3_B,1,test,P,145,4,820,550,P,1,<rshift>,1,1,163063,483
Control_TS_3_B,1,test,P,146,1,620,350,P,1,<rshift>,1,1,164063,321
Control_TS_3_B,1,test,P,147,4,820,550,R,0,<rshift>,1,0,165063,270
Control_TS_3_B,1,test,P,148,2,820,350,R,0,<rshift>,1,0,166063,340
Control_TS_3_B,1,test,P,149,2,820,350,P,1,<rshift>,1,1,167063,336
Control_TS_3_B,1,test,P,150,2,820,350,P,1,<rshift>,1,1,168063,313
Control_TS_3_B,1,test,P,151,1,620,350,P,1,<rshift>,1,1,169063,364
Control_TS_3_B,1,test,P,152,3,620,550,P,1,<rshift>,1,1,170063,342
Control_TS_3_B,1,test,P,153,1,620,350,P,1,<rshift>,1,1,171063,622
Control_TS_3_B,1,test,P,154,2,820,350,P,1,<rshift>,1,1,172063,356
Control_TS_3_B,1,test,P,155,2,820,350,P,1,<rshift>,1,1,173063,327
Control_TS_3_B,1,test,P,156,2,820,350,P,1,<rshift>,1,1,174063,323
Control_TS_3_B,1,test,P,157,3,620,550,P,1,<rshift>,1,1,175063,321
Control_TS_3_B,1,test,P,158,2,820,350,P,1,<rshift>,1,1,176063,288
Control_TS_3_B,1,test,P,159,1,620,350,P,1,<rshift>,1,1,177063,284
Control_TS_3_B,1,test,P,160,1,620,350,R,0,<rshift>,1,0,178064,337
Control_TS_3_B,1,test,P,161,3,620,550,R,0,<rshift>,1,0,179063,313
Control_TS_3_B,1,test,P,162,4,820,550,P,1,<rshift>,1,1,180063,328
Control_TS_3_B,1,test,P,163,1,620,350,P,1,<rshift>,1,1,181063,382
Control_TS_3_B,1,test,P,164,3,620,550,P,1,<rshift>,1,1,182063,403
Control_TS_3_B,1,test,P,165,1,620,350,P,1,<rshift>,1,1,183063,332
Control_TS_3_B,1,test,P,166,1,620,350,P,1,<rshift>,1,1,184063,326
Control_TS_3_B,1,test,P,167,4,820,550,P,1,<rshift>,1,1,185064,303
Control_TS_3_B,1,test,P,168,1,620,350,P,1,<rshift>,1,1,186063,339
Control_TS_3_B,1,test,P,169,1,620,350,P,1,<rshift>,1,1,187063,334
Control_TS_3_B,1,test,P,170,2,820,350,P,1,<rshift>,1,1,188063,348
Control_TS_3_B,1,test,P,171,3,620,550,P,1,<rshift>,1,1,189064,400
Control_TS_3_B,1,test,P,172,4,820,550,P,1,<rshift>,1,1,190064,330
Control_TS_3_B,1,test,P,173,1,620,350,P,1,<rshift>,1,1,191064,318
Control_TS_3_B,1,test,P,174,4,820,550,R,0,<rshift>,1,0,192063,306
Control_TS_3_B,1,test,P,175,3,620,550,P,1,<rshift>,1,1,193063,291
Control_TS_3_B,1,test,P,176,4,820,550,R,0,<rshift>,1,0,194063,322
Control_TS_3_B,1,test,P,177,3,620,550,P,1,<rshift>,1,1,195063,330
Control_TS_3_B,1,test,P,178,4,820,550,P,1,<rshift>,1,1,196063,341
Control_TS_3_B,1,test,P,179,1,620,350,P,1,<rshift>,1,1,197063,308
Control_TS_3_B,1,test,P,180,1,620,350,P,1,<rshift>,1,1,198063,344
Control_TS_3_B,1,test,P,181,4,820,550,P,1,<rshift>,1,1,199063,427
Control_TS_3_B,1,test,P,182,1,620,350,P,1,<rshift>,1,1,200063,399
Control_TS_3_B,1,test,P,183,2,820,350,P,1,<rshift>,1,1,201063,320
Control_TS_3_B,1,test,P,184,3,620,550,P,1,<rshift>,1,1,202063,338
Control_TS_3_B,1,test,P,185,4,820,550,R,0,<rshift>,1,0,203063,318
Control_TS_3_B,1,test,P,186,3,620,550,P,1,<rshift>,1,1,204063,265
Control_TS_3_B,1,test,P,187,3,620,550,P,1,<rshift>,1,1,205063,343
Control_TS_3_B,1,test,P,188,3,620,550,P,1,<rshift>,1,1,206064,319
Control_TS_3_B,1,test,P,189,1,620,350,R,0,NONE,0,1,207064,950
Control_TS_3_B,1,test,P,190,4,820,550,R,0,NONE,0,1,208063,950
Control_TS_3_B,1,test,P,191,3,620,550,R,0,NONE,0,1,209063,950
Control_TS_3_B,1,test,P,192,4,820,550,P,1,<rshift>,1,1,210063,427
Control_TS_3_B,1,test,P,193,3,620,550,P,1,<rshift>,1,1,211064,375
Control_TS_3_B,1,test,P,194,4,820,550,R,0,NONE,0,1,212063,950
Control_TS_3_B,1,test,P,195,1,620,350,P,1,<rshift>,1,1,213062,325
Control_TS_3_B,1,test,P,196,4,820,550,R,0,NONE,0,1,214063,950
Control_TS_3_B,1,test,P,197,3,620,550,P,1,<rshift>,1,1,215063,334
Control_TS_3_B,1,test,P,198,4,820,550,R,0,<rshift>,1,0,216063,354
Control_TS_3_B,1,test,P,199,1,620,350,R,0,<rshift>,1,0,217063,381
Control_TS_3_B,1,test,P,200,2,820,350,R,0,NONE,0,1,218063,950
Control_TS_3_B,1,test,P,201,1,620,350,P,1,<rshift>,1,1,219063,427
Control_TS_3_B,1,test,P,202,1,620,350,P,1,<rshift>,1,1,220063,392
Control_TS_3_B,1,test,P,203,2,820,350,R,0,NONE,0,1,221063,950
Control_TS_3_B,1,test,P,204,1,620,350,R,0,NONE,0,1,222063,950
Control_TS_3_B,1,test,P,205,1,620,350,P,1,<rshift>,1,1,223063,415
Control_TS_3_B,1,test,P,206,2,820,350,P,1,<rshift>,1,1,224063,427
Control_TS_3_B,1,test,P,207,4,820,550,P,1,<rshift>,1,1,225063,451
Control_TS_3_B,1,test,P,208,3,620,550,P,1,<rshift>,1,1,226063,432
Control_TS_3_B,1,test,P,209,3,620,550,R,0,NONE,0,1,227063,950
Control_TS_3_B,1,test,P,210,2,820,350,P,1,<rshift>,1,1,228063,362
Control_TS_3_B,1,test,P,211,4,820,550,P,1,<rshift>,1,1,229063,416
Control_TS_3_B,1,test,P,212,1,620,350,P,1,<rshift>,1,1,230063,395
Control_TS_3_B,1,test,P,213,3,620,550,P,1,<rshift>,1,1,231063,366
Control_TS_3_B,1,test,P,214,2,820,350,P,1,<rshift>,1,1,232063,399
Control_TS_3_B,1,test,P,215,3,620,550,P,1,<rshift>,1,1,233063,341
Control_TS_3_B,1,test,P,216,1,620,350,P,1,<rshift>,1,1,234063,352
Control_TS_3_B,1,test,P,217,3,620,550,R,0,NONE,0,1,235063,950
Control_TS_3_B,1,test,P,218,2,820,350,P,1,<rshift>,1,1,236062,354
Control_TS_3_B,1,test,P,219,4,820,550,P,1,<rshift>,1,1,237063,365
Control_TS_3_B,1,test,P,220,1,620,350,P,1,<rshift>,1,1,238063,310
Control_TS_3_B,1,test,P,221,4,820,550,P,1,<rshift>,1,1,239063,294
Control_TS_3_B,1,test,P,222,1,620,350,P,1,<rshift>,1,1,240063,307
Control_TS_3_B,1,test,P,223,1,620,350,R,0,<rshift>,1,0,241063,346
Control_TS_3_B,1,test,P,224,1,620,350,R,0,NONE,0,1,242063,950
Control_TS_3_B,1,test,P,225,1,620,350,P,1,<rshift>,1,1,243063,456
Control_TS_3_B,1,test,P,226,4,820,550,R,0,<rshift>,1,0,244063,556
Control_TS_3_B,1,test,P,227,3,620,550,P,1,<rshift>,1,1,245063,378
Control_TS_3_B,1,test,P,228,4,820,550,P,1,<rshift>,1,1,246063,363
Control_TS_3_B,1,test,P,229,4,820,550,P,1,<rshift>,1,1,247063,410
Control_TS_3_B,1,test,P,230,2,820,350,P,1,<rshift>,1,1,248063,564
Control_TS_3_B,1,test,P,231,3,620,550,P,1,<rshift>,1,1,249063,335
Control_TS_3_B,1,test,P,232,3,620,550,R,0,<rshift>,1,0,250063,339
Control_TS_3_B,1,test,P,233,1,620,350,P,1,<rshift>,1,1,251063,357
Control_TS_3_B,1,test,P,234,1,620,350,P,1,<rshift>,1,1,252063,348
Control_TS_3_B,1,test,P,235,2,820,350,P,1,<rshift>,1,1,253063,289
Control_TS_3_B,1,test,P,236,2,820,350,P,1,<rshift>,1,1,254063,358
Control_TS_3_B,1,test,P,237,2,820,350,P,1,<rshift>,1,1,255063,331
Control_TS_3_B,1,test,P,238,1,620,350,P,1,<rshift>,1,1,256063,318
Control_TS_3_B,1,test,P,239,3,620,550,R,0,<rshift>,1,0,257063,333
Control_TS_3_B,1,test,P,240,1,620,350,P,1,<rshift>,1,1,258063,454
Control_TS_3_B,1,test,P,241,2,820,350,R,0,NONE,0,1,259063,950
Control_TS_3_B,1,test,P,242,3,620,550,P,1,<rshift>,1,1,260063,340
Control_TS_3_B,1,test,P,243,4,820,550,P,1,<rshift>,1,1,261063,412
Control_TS_3_B,1,test,P,244,4,820,550,P,1,<rshift>,1,1,262063,566
Control_TS_3_B,1,test,P,245,3,620,550,P,1,NONE,0,0,263063,950
Control_TS_3_B,1,test,P,246,1,620,350,R,0,<rshift>,1,0,264063,410
Control_TS_3_B,1,test,P,247,3,620,550,P,1,<rshift>,1,1,265063,318
Control_TS_3_B,1,test,P,248,3,620,550,R,0,<rshift>,1,0,266063,334
Control_TS_3_B,1,test,P,249,4,820,550,P,1,<rshift>,1,1,267063,403
Control_TS_3_B,1,test,P,250,3,620,550,P,1,NONE,0,0,268063,950
Control_TS_3_B,1,test,P,251,2,820,350,P,1,<rshift>,1,1,269063,744
Control_TS_3_B,1,test,P,252,2,820,350,P,1,<rshift>,1,1,270063,301
Control_TS_3_B,1,test,P,253,3,620,550,P,1,<rshift>,1,1,271063,790
Control_TS_3_B,1,test,P,254,2,820,350,P,1,<rshift>,1,1,272063,421
Control_TS_3_B,1,test,P,255,4,820,550,P,1,<rshift>,1,1,273063,368
Control_TS_3_B,1,test,P,256,3,620,550,P,1,<rshift>,1,1,274063,364
Control_TS_3_B,1,test,P,257,1,620,350,P,1,<rshift>,1,1,275063,358
Control_TS_3_B,1,test,P,258,3,620,550,P,1,<rshift>,1,1,276063,394
Control_TS_3_B,1,test,P,259,1,620,350,P,1,<rshift>,1,1,277063,425
Control_TS_3_B,1,test,P,260,2,820,350,P,1,<rshift>,1,1,278063,412
Control_TS_3_B,1,test,P,261,4,820,550,P,1,<rshift>,1,1,279063,333
Control_TS_3_B,1,test,P,262,1,620,350,P,1,<rshift>,1,1,280063,432
Control_TS_3_B,1,test,P,263,1,620,350,P,1,<rshift>,1,1,281063,315
Control_TS_3_B,1,test,P,264,3,620,550,P,1,<rshift>,1,1,282063,296
Control_TS_3_B,1,test,P,265,2,820,350,P,1,<rshift>,1,1,283063,272
Control_TS_3_B,1,test,P,266,3,620,550,P,1,<rshift>,1,1,284063,311
Control_TS_3_B,1,test,P,267,1,620,350,P,1,<rshift>,1,1,285063,318
Control_TS_3_B,1,test,P,268,2,820,350,P,1,<rshift>,1,1,286063,285
Control_TS_3_B,1,test,P,269,2,820,350,P,1,<rshift>,1,1,287063,391
Control_TS_3_B,1,test,P,270,3,620,550,P,1,<rshift>,1,1,288063,355
Control_TS_3_B,1,test,P,271,4,820,550,P,1,<rshift>,1,1,289063,293
Control_TS_3_B,1,test,P,272,2,820,350,P,1,<rshift>,1,1,290063,264
Control_TS_3_B,1,test,P,273,1,620,350,P,1,<rshift>,1,1,291063,318
Control_TS_3_B,1,test,P,274,3,620,550,P,1,<rshift>,1,1,292063,451
Control_TS_3_B,1,test,P,275,4,820,550,P,1,<rshift>,1,1,293063,413
Control_TS_3_B,1,test,P,276,4,820,550,P,1,<rshift>,1,1,294063,417
Control_TS_3_B,1,test,P,277,2,820,350,P,1,<rshift>,1,1,295063,526
Control_TS_3_B,1,test,P,278,4,820,550,P,1,<rshift>,1,1,296063,350
Control_TS_3_B,1,test,P,279,4,820,550,P,1,<rshift>,1,1,297063,258
Control_TS_3_B,1,test,P,280,1,620,350,P,1,<rshift>,1,1,298063,281
Control_TS_3_B,1,test,P,281,4,820,550,R,0,<rshift>,1,0,299063,252
Control_TS_3_B,1,test,P,282,3,620,550,P,1,<rshift>,1,1,300063,336
Control_TS_3_B,1,test,P,283,1,620,350,P,1,<rshift>,1,1,301063,375
Control_TS_3_B,1,test,P,284,2,820,350,P,1,<rshift>,1,1,302063,533
Control_TS_3_B,1,test,P,285,4,820,550,R,0,<rshift>,1,0,303063,408
Control_TS_3_B,1,test,P,286,1,620,350,P,1,<rshift>,1,1,304063,538
Control_TS_3_B,1,test,P,287,1,620,350,R,0,<rshift>,1,0,305063,374
Control_TS_3_B,1,test,P,288,1,620,350,P,1,<rshift>,1,1,306063,305
Control_TS_3_B,1,test,P,289,2,820,350,P,1,<rshift>,1,1,307063,321
Control_TS_3_B,1,test,P,290,1,620,350,P,1,<rshift>,1,1,308063,288
Control_TS_3_B,1,test,P,291,1,620,350,P,1,<rshift>,1,1,309063,324
Control_TS_3_B,1,test,P,292,4,820,550,P,1,<rshift>,1,1,310063,367
Control_TS_3_B,1,test,P,293,3,620,550,P,1,<rshift>,1,1,311063,343
Control_TS_3_B,1,test,P,294,2,820,350,P,1,<rshift>,1,1,312063,289
Control_TS_3_B,1,test,P,295,2,820,350,R,0,<rshift>,1,0,313063,296
Control_TS_3_B,1,test,P,296,2,820,350,P,1,<rshift>,1,1,314063,243
Control_TS_3_B,1,test,P,297,1,620,350,R,0,<rshift>,1,0,315064,348
Control_TS_3_B,1,test,P,298,2,820,350,P,1,<rshift>,1,1,316063,331
Control_TS_3_B,1,test,P,299,2,820,350,R,0,NONE,0,1,317063,950
Control_TS_3_B,1,test,P,300,4,820,550,P,1,<rshift>,1,1,318063,387
Control_TS_3_B,2,practice,R,1,4,820,550,R,1,NONE,0,0,321334,950
Control_TS_3_B,2,practice,R,2,3,620,550,R,1,<rshift>,1,1,323329,442
Control_TS_3_B,2,practice,R,3,2,820,350,R,1,<rshift>,1,1,323801,533
Control_TS_3_B,2,practice,R,4,3,620,550,R,1,<rshift>,1,1,324349,445
Control_TS_3_B,2,practice,R,5,1,620,350,P,0,<rshift>,1,0,325333,459
Control_TS_3_B,2,practice,R,6,3,620,550,R,1,<rshift>,1,1,326851,391
Control_TS_3_B,2,practice,R,7,1,620,350,R,1,<rshift>,1,1,327333,470
Control_TS_3_B,2,practice,R,8,1,620,350,P,0,<rshift>,1,0,328333,339
Control_TS_3_B,2,practice,R,9,2,820,350,R,1,<rshift>,1,1,329730,336
Control_TS_3_B,2,practice,R,10,3,620,550,R,1,<rshift>,1,1,330333,705
Control_TS_3_B,3,test,R,1,2,820,350,P,0,NONE,0,1,333380,950
Control_TS_3_B,3,test,R,2,2,820,350,R,1,<rshift>,1,1,334379,369
Control_TS_3_B,3,test,R,3,4,820,550,R,1,<rshift>,1,1,335379,369
Control_TS_3_B,3,test,R,4,2,820,350,P,0,NONE,0,1,336379,950
Control_TS_3_B,3,test,R,5,4,820,550,R,1,<rshift>,1,1,337379,420
Control_TS_3_B,3,test,R,6,3,620,550,R,1,<rshift>,1,1,338379,389
Control_TS_3_B,3,test,R,7,1,620,350,R,1,<rshift>,1,1,339379,395
Control_TS_3_B,3,test,R,8,4,820,550,P,0,<rshift>,1,0,340379,349
Control_TS_3_B,3,test,R,9,4,820,550,R,1,<rshift>,1,1,341379,354
Control_TS_3_B,3,test,R,10,2,820,350,R,1,<rshift>,1,1,342379,349
Control_TS_3_B,3,test,R,11,1,620,350,R,1,<rshift>,1,1,343379,299
Control_TS_3_B,3,test,R,12,2,820,350,R,1,<rshift>,1,1,344379,338
Control_TS_3_B,3,test,R,13,2,820,350,R,1,<rshift>,1,1,345380,336
Control_TS_3_B,3,test,R,14,4,820,550,P,0,<rshift>,1,0,346379,361
Control_TS_3_B,3,test,R,15,3,620,550,R,1,<rshift>,1,1,347379,333
Control_TS_3_B,3,test,R,16,1,620,350,R,1,<rshift>,1,1,348379,336
Control_TS_3_B,3,test,R,17,1,620,350,P,0,NONE,0,1,349379,950
Control_TS_3_B,3,test,R,18,3,620,550,R,1,<rshift>,1,1,350379,410
Control_TS_3_B,3,test,R,19,2,820,350,P,0,NONE,0,1,351380,950
Control_TS_3_B,3,test,R,20,1,620,350,R,1,<rshift>,1,1,352379,422
Control_TS_3_B,3,test,R,21,4,820,550,R,1,<rshift>,1,1,353379,381
Control_TS_3_B,3,test,R,22,3,620,550,P,0,NONE,0,1,354379,950
Control_TS_3_B,3,test,R,23,2,820,350,R,1,<rshift>,1,1,355379,363
Control_TS_3_B,3,test,R,24,3,620,550,P,0,NONE,0,1,356379,950
Control_TS_3_B,3,test,R,25,4,820,550,R,1,<rshift>,1,1,357379,371
Control_TS_3_B,3,test,R,26,3,620,550,R,1,<rshift>,1,1,358379,479
Control_TS_3_B,3,test,R,27,2,820,350,R,1,<rshift>,1,1,359379,371
Control_TS_3_B,3,test,R,28,4,820,550,P,0,NONE,0,1,360379,950
Control_TS_3_B,3,test,R,29,1,620,350,P,0,NONE,0,1,361379,950
Control_TS_3_B,3,test,R,30,2,820,350,R,1,<rshift>,1,1,362379,373
Control_TS_3_B,3,test,R,31,1,620,350,R,1,<rshift>,1,1,363379,381
Control_TS_3_B,3,test,R,32,1,620,350,P,0,<rshift>,1,0,364379,357
Control_TS_3_B,3,test,R,33,1,620,350,P,0,NONE,0,1,365379,950
Control_TS_3_B,3,test,R,34,3,620,550,P,0,<rshift>,1,0,366379,322
Control_TS_3_B,3,test,R,35,1,620,350,R,1,<rshift>,1,1,367379,365
Control_TS_3_B,3,test,R,36,4,820,550,R,1,<rshift>,1,1,368379,375
Control_TS_3_B,3,test,R,37,2,820,350,R,1,<rshift>,1,1,369379,345
Control_TS_3_B,3,test,R,38,3,620,550,R,1,<rshift>,1,1,370379,393
Control_TS_3_B,3,test,R,39,4,820,550,R,1,<rshift>,1,1,371379,373
Control_TS_3_B,3,test,R,40,3,620,550,R,1,<rshift>,1,1,372379,396
Control_TS_3_B,3,test,R,41,3,620,550,R,1,<rshift>,1,1,373379,375
Control_TS_3_B,3,test,R,42,2,820,350,R,1,<rshift>,1,1,374379,389
Control_TS_3_B,3,test,R,43,3,620,550,R,1,<rshift>,1,1,375379,471
Control_TS_3_B,3,test,R,44,1,620,350,P,0,<rshift>,1,0,376379,343
Control_TS_3_B,3,test,R,45,3,620,550,R,1,<rshift>,1,1,377379,351
Control_TS_3_B,3,test,R,46,1,620,350,R,1,<rshift>,1,1,378378,469
Control_TS_3_B,3,test,R,47,3,620,550,P,0,NONE,0,1,379379,950
Control_TS_3_B,3,test,R,48,1,620,350,R,1,<rshift>,1,1,380379,562
Control_TS_3_B,3,test,R,49,2,820,350,P,0,NONE,0,1,381379,950
Control_TS_3_B,3,test,R,50,2,820,350,R,1,<rshift>,1,1,382379,359
Control_TS_3_B,3,test,R,51,1,620,350,R,1,<rshift>,1,1,383379,353
Control_TS_3_B,3,test,R,52,1,620,350,R,1,<rshift>,1,1,384379,355
Control_TS_3_B,3,test,R,53,4,820,550,P,0,NONE,0,1,385379,950
Control_TS_3_B,3,test,R,54,2,820,350,R,1,<rshift>,1,1,386379,363
Control_TS_3_B,3,test,R,55,4,820,550,P,0,NONE,0,1,387379,950
Control_TS_3_B,3,test,R,56,4,820,550,R,1,<rshift>,1,1,388379,357
Control_TS_3_B,3,test,R,57,3,620,550,R,1,<rshift>,1,1,389379,385
Control_TS_3_B,3,test,R,58,1,620,350,R,1,<rshift>,1,1,390379,353
Control_TS_3_B,3,test,R,59,3,620,550,R,1,<rshift>,1,1,391379,365
Control_TS_3_B,3,test,R,60,2,820,350,R,1,<rshift>,1,1,392379,389
Control_TS_3_B,3,test,R,61,4,820,550,P,0,NONE,0,1,393379,950
Control_TS_3_B,3,test,R,62,3,620,550,R,1,<rshift>,1,1,394379,396
Control_TS_3_B,3,test,R,63,1,620,350,P,0,NONE,0,1,395379,950
Control_TS_3_B,3,test,R,64,3,620,550,P,0,NONE,0,1,396379,950
Control_TS_3_B,3,test,R,65,2,820,350,R,1,<rshift>,1,1,397379,369
Control_TS_3_B,3,test,R,66,2,820,350,R,1,<rshift>,1,1,398379,380
Control_TS_3_B,3,test,R,67,4,820,550,R,1,<rshift>,1,1,399379,455
Control_TS_3_B,3,test,R,68,1,620,350,R,1,<rshift>,1,1,400379,411
Control_TS_3_B,3,test,R,69,1,620,350,R,1,<rshift>,1,1,401379,370
Control_TS_3_B,3,test,R,70,3,620,550,R,1,<rshift>,1,1,402379,377
Control_TS_3_B,3,test,R,71,2,820,350,R,1,<rshift>,1,1,403380,406
Control_TS_3_B,3,test,R,72,3,620,550,P,0,NONE,0,1,404380,950
Control_TS_3_B,3,test,R,73,2,820,350,R,1,<rshift>,1,1,405379,360
Control_TS_3_B,3,test,R,74,2,820,350,R,1,<rshift>,1,1,406379,364
Control_TS_3_B,3,test,R,75,4,820,550,R,1,<rshift>,1,1,407379,388
Control_TS_3_B,3,test,R,76,1,620,350,P,0,NONE,0,1,408380,950
Control_TS_3_B,3,test,R,77,1,620,350,R,1,<rshift>,1,1,409379,383
Control_TS_3_B,3,test,R,78,4,820,550,R,1,<rshift>,1,1,410379,387
Control_TS_3_B,3,test,R,79,1,620,350,R,1,<rshift>,1,1,411379,489
Control_TS_3_B,3,test,R,80,3,620,550,R,1,<rshift>,1,1,412380,405
Control_TS_3_B,3,test,R,81,1,620,350,R,1,<rshift>,1,1,413379,425
Control_TS_3_B,3,test,R,82,2,820,350,R,1,<rshift>,1,1,414379,333
Control_TS_3_B,3,test,R,83,4,820,550,R,1,<rshift>,1,1,415379,353
Control_TS_3_B,3,test,R,84,2,820,350,P,0,NONE,0,1,416379,950
Control_TS_3_B,3,test,R,85,2,820,350,R,1,<rshift>,1,1,417378,344
Control_TS_3_B,3,test,R,86,4,820,550,P,0,<rshift>,1,0,418379,344
Control_TS_3_B,3,test,R,87,3,620,550,R,1,<rshift>,1,1,419379,346
Control_TS_3_B,3,test,R,88,2,820,350,P,0,NONE,0,1,420380,950
Control_TS_3_B,3,test,R,89,2,820,350,R,1,<rshift>,1,1,421379,348
Control_TS_3_B,3,test,R,90,3,620,550,P,0,<rshift>,1,0,422379,372
Control_TS_3_B,3,test,R,91,2,820,350,R,1,<rshift>,1,1,423379,324
Control_TS_3_B,3,test,R,92,2,820,350,P,0,NONE,0,1,424379,950
Control_TS_3_B,3,test,R,93,2,820,350,R,1,<rshift>,1,1,425379,365
Control_TS_3_B,3,test,R,94,3,620,550,R,1,<rshift>,1,1,426379,364
Control_TS_3_B,3,test,R,95,4,820,550,R,1,<rshift>,1,1,427379,338
Control_TS_3_B,3,test,R,96,1,620,350,R,1,<rshift>,1,1,428379,323
Control_TS_3_B,3,test,R,97,4,820,550,R,1,<rshift>,1,1,429379,311
Control_TS_3_B,3,test,R,98,1,620,350,P,0,NONE,0,1,430379,950
Control_TS_3_B,3,test,R,99,1,620,350,P,0,NONE,0,1,431379,950
Control_TS_3_B,3,test,R,100,1,620,350,R,1,<rshift>,1,1,432379,415
Control_TS_3_B,3,test,R,101,2,820,350,R,1,<rshift>,1,1,433379,352
Control_TS_3_B,3,test,R,102,3,620,550,R,1,<rshift>,1,1,434379,392
Control_TS_3_B,3,test,R,103,2,820,350,R,1,<rshift>,1,1,435379,382
Control_TS_3_B,3,test,R,104,2,820,350,R,1,<rshift>,1,1,436379,379
Control_TS_3_B,3,test,R,105,1,620,350,R,1,<rshift>,1,1,437379,392
Control_TS_3_B,3,test,R,106,1,620,350,R,1,<rshift>,1,1,438379,382
Control_TS_3_B,3,test,R,107,3,620,550,R,1,<rshift>,1,1,439379,392
Control_TS_3_B,3,test,R,108,3,620,550,P,0,<rshift>,1,0,440379,334
Control_TS_3_B,3,test,R,109,2,820,350,R,1,<rshift>,1,1,441379,290
Control_TS_3_B,3,test,R,110,4,820,550,R,1,<rshift>,1,1,442379,314
Control_TS_3_B,3,test,R,111,1,620,350,R,1,<rshift>,1,1,443379,348
Control_TS_3_B,3,test,R,112,2,820,350,R,1,<rshift>,1,1,444379,377
Control_TS_3_B,3,test,R,113,1,620,350,R,1,<rshift>,1,1,445379,385
Control_TS_3_B,3,test,R,114,4,820,550,R,1,<rshift>,1,1,446379,344
Control_TS_3_B,3,test,R,115,1,620,350,R,1,<rshift>,1,1,447379,315
Control_TS_3_B,3,test,R,116,4,820,550,R,1,<rshift>,1,1,448379,338
Control_TS_3_B,3,test,R,117,3,620,550,R,1,<rshift>,1,1,449379,312
Control_TS_3_B,3,test,R,118,2,820,350,R,1,<rshift>,1,1,450379,339
Control_TS_3_B,3,test,R,119,4,820,550,R,1,<rshift>,1,1,451379,515
Control_TS_3_B,3,test,R,120,1,620,350,R,1,<rshift>,1,1,452379,329
Control_TS_3_B,3,test,R,121,1,620,350,R,1,<rshift>,1,1,453379,334
Control_TS_3_B,3,test,R,122,1,620,350,R,1,<rshift>,1,1,454379,385
Control_TS_3_B,3,test,R,123,2,820,350,R,1,<rshift>,1,1,455379,315
Control_TS_3_B,3,test,R,124,1,620,350,P,0,<rshift>,1,0,456379,332
Control_TS_3_B,3,test,R,125,1,620,350,P,0,<rshift>,1,0,457379,325
Control_TS_3_B,3,test,R,126,2,820,350,R,1,<rshift>,1,1,458379,346
Control_TS_3_B,3,test,R,127,1,620,350,R,1,<rshift>,1,1,459379,340
Control_TS_3_B,3,test,R,128,1,620,350,R,1,<rshift>,1,1,460379,319
Control_TS_3_B,3,test,R,129,2,820,350,R,1,<rshift>,1,1,461379,387
Control_TS_3_B,3,test,R,130,3,620,550,R,1,<rshift>,1,1,462379,429
Control_TS_3_B,3,test,R,131,4,820,550,R,1,<rshift>,1,1,463379,485
Control_TS_3_B,3,test,R,132,3,620,550,R,1,<rshift>,1,1,464379,366
Control_TS_3_B,3,test,R,133,3,620,550,R,1,<rshift>,1,1,465379,370
Control_TS_3_B,3,test,R,134,2,820,350,R,1,<rshift>,1,1,466379,361
Control_TS_3_B,3,test,R,135,3,620,550,R,1,<rshift>,1,1,467379,402
Control_TS_3_B,3,test,R,136,4,820,550,R,1,<rshift>,1,1,468379,408
Control_TS_3_B,3,test,R,137,3,620,550,R,1,<rshift>,1,1,469379,421
Control_TS_3_B,3,test,R,138,4,820,550,R,1,<rshift>,1,1,470378,363
Control_TS_3_B,3,test,R,139,1,620,350,P,0,NONE,0,1,471379,950
Control_TS_3_B,3,test,R,140,3,620,550,R,1,<rshift>,1,1,472379,394
Control_TS_3_B,3,test,R,141,1,620,350,P,0,NONE,0,1,473379,950
Control_TS_3_B,3,test,R,142,3,620,550,R,1,<rshift>,1,1,474379,268
Control_TS_3_B,3,test,R,143,1,620,350,R,1,<rshift>,1,1,475379,546
Control_TS_3_B,3,test,R,144,1,620,350,R,1,<rshift>,1,1,476379,333
Control_TS_3_B,3,test,R,145,1,620,350,P,0,NONE,0,1,477379,950
Control_TS_3_B,3,test,R,146,2,820,350,R,1,<rshift>,1,1,478379,319
Control_TS_3_B,3,test,R,147,3,620,550,R,1,<rshift>,1,1,479379,369
Control_TS_3_B,3,test,R,148,1,620,350,R,1,<rshift>,1,1,480379,331
Control_TS_3_B,3,test,R,149,3,620,550,R,1,<rshift>,1,1,481379,351
Control_TS_3_B,3,test,R,150,2,820,350,R,1,<rshift>,1,1,482379,329
Control_TS_3_B,3,test,R,151,1,620,350,P,0,<rshift>,1,0,483379,323
Control_TS_3_B,3,test,R,152,2,820,350,P,0,<rshift>,1,0,484379,262
Control_TS_3_B,3,test,R,153,1,620,350,P,0,<rshift>,1,0,485379,274
Control_TS_3_B,3,test,R,154,3,620,550,R,1,<rshift>,1,1,486379,319
Control_TS_3_B,3,test,R,155,2,820,350,R,1,<rshift>,1,1,487379,330
Control_TS_3_B,3,test,R,156,2,820,350,R,1,<rshift>,1,1,488379,344
Control_TS_3_B,3,test,R,157,4,820,550,P,0,NONE,0,1,489379,950
Control_TS_3_B,3,test,R,158,3,620,550,R,1,<rshift>,1,1,490379,356
Control_TS_3_B,3,test,R,159,1,620,350,R,1,<rshift>,1,1,491379,400
Control_TS_3_B,3,test,R,160,3,620,550,R,1,<rshift>,1,1,492379,370
Control_TS_3_B,3,test,R,161,1,620,350,P,0,NONE,0,1,493379,950
Control_TS_3_B,3,test,R,162,2,820,350,R,1,<rshift>,1,1,494379,268
Control_TS_3_B,3,test,R,163,3,620,550,R,1,<rshift>,1,1,495379,393
Control_TS_3_B,3,test,R,164,4,820,550,R,1,<rshift>,1,1,496379,385
Control_TS_3_B,3,test,R,165,4,820,550,R,1,<rshift>,1,1,497379,395
Control_TS_3_B,3,test,R,166,1,620,350,R,1,<rshift>,1,1,498379,334
Control_TS_3_B,3,test,R,167,1,620,350,P,0,<rshift>,1,0,499379,362
Control_TS_3_B,3,test,R,168,4,820,550,R,1,<rshift>,1,1,500379,265
Control_TS_3_B,3,test,R,169,2,820,350,R,1,<rshift>,1,1,501379,317
Control_TS_3_B,3,test,R,170,1,620,350,R,1,<rshift>,1,1,502379,408
Control_TS_3_B,3,test,R,171,3,620,550,R,1,<rshift>,1,1,503379,380
Control_TS_3_B,3,test,R,172,1,620,350,R,1,<rshift>,1,1,504379,345
Control_TS_3_B,3,test,R,173,3,620,550,R,1,<rshift>,1,1,505379,386
Control_TS_3_B,3,test,R,174,2,820,350,R,1,<rshift>,1,1,506379,353
Control_TS_3_B,3,test,R,175,2,820,350,R,1,<rshift>,1,1,507379,390
Control_TS_3_B,3,test,R,176,1,620,350,R,1,<rshift>,1,1,508379,332
Control_TS_3_B,3,test,R,177,3,620,550,R,1,<rshift>,1,1,509379,415
Control_TS_3_B,3,test,R,178,4,820,550,R,1,<rshift>,1,1,510379,377
Control_TS_3_B,3,test,R,179,2,820,350,R,1,<rshift>,1,1,511379,361
Control_TS_3_B,3,test,R,180,2,820,350,R,1,<rshift>,1,1,512379,355
Control_TS_3_B,3,test,R,181,3,620,550,R,1,<rshift>,1,1,513379,525
Control_TS_3_B,3,test,R,182,2,820,350,R,1,<rshift>,1,1,514379,298
Control_TS_3_B,3,test,R,183,2,820,350,P,0,<rshift>,1,0,515379,306
Control_TS_3_B,3,test,R,184,1,620,350,P,0,NONE,0,1,516378,950
Control_TS_3_B,3,test,R,185,1,620,350,R,1,<rshift>,1,1,517379,398
Control_TS_3_B,3,test,R,186,1,620,350,R,1,<rshift>,1,1,518379,561
Control_TS_3_B,3,test,R,187,2,820,350,R,1,<rshift>,1,1,519380,342
Control_TS_3_B,3,test,R,188,3,620,550,R,1,<rshift>,1,1,520379,370
Control_TS_3_B,3,test,R,189,3,620,550,R,1,<rshift>,1,1,521380,351
Control_TS_3_B,3,test,R,190,3,620,550,R,1,<rshift>,1,1,522379,351
Control_TS_3_B,3,test,R,191,2,820,350,R,1,<rshift>,1,1,523379,301
Control_TS_3_B,3,test,R,192,4,820,550,R,1,<rshift>,1,1,524379,310
Control_TS_3_B,3,test,R,193,3,620,550,R,1,<rshift>,1,1,525379,365
Control_TS_3_B,3,test,R,194,3,620,550,R,1,<rshift>,1,1,526379,269
Control_TS_3_B,3,test,R,195,2,820,350,R,1,<rshift>,1,1,527379,210
Control_TS_3_B,3,test,R,196,3,620,550,R,1,<rshift>,1,1,528379,479
Control_TS_3_B,3,test,R,197,2,820,350,P,0,<rshift>,1,0,529379,337
Control_TS_3_B,3,test,R,198,2,820,350,P,0,NONE,0,1,530379,950
Control_TS_3_B,3,test,R,199,2,820,350,P,0,NONE,0,1,531379,950
Control_TS_3_B,3,test,R,200,3,620,550,R,1,<rshift>,1,1,532380,441
Control_TS_3_B,3,test,R,201,4,820,550,R,1,<rshift>,1,1,533380,322
Control_TS_3_B,3,test,R,202,3,620,550,R,1,<rshift>,1,1,534380,331
Control_TS_3_B,3,test,R,203,3,620,550,R,1,<rshift>,1,1,535379,346
Control_TS_3_B,3,test,R,204,3,620,550,R,1,<rshift>,1,1,536379,308
Control_TS_3_B,3,test,R,205,3,620,550,R,1,<rshift>,1,1,537379,284
Control_TS_3_B,3,test,R,206,2,820,350,R,1,<rshift>,1,1,538379,331
Control_TS_3_B,3,test,R,207,4,820,550,R,1,<rshift>,1,1,539379,313
Control_TS_3_B,3,test,R,208,1,620,350,R,1,<rshift>,1,1,540379,348
Control_TS_3_B,3,test,R,209,2,820,350,P,0,NONE,0,1,541379,950
Control_TS_3_B,3,test,R,210,4,820,550,R,1,<rshift>,1,1,542379,323
Control_TS_3_B,3,test,R,211,3,620,550,R,1,<rshift>,1,1,543379,319
Control_TS_3_B,3,test,R,212,4,820,550,R,1,<rshift>,1,1,544379,290
Control_TS_3_B,3,test,R,213,4,820,550,R,1,<rshift>,1,1,545379,338
Control_TS_3_B,3,test,R,214,3,620,550,R,1,<rshift>,1,1,546379,331
Control_TS_3_B,3,test,R,215,2,820,350,P,0,<rshift>,1,0,547379,308
Control_TS_3_B,3,test,R,216,2,820,350,R,1,<rshift>,1,1,548379,327
Control_TS_3_B,3,test,R,217,2,820,350,R,1,<rshift>,1,1,549379,318
Control_TS_3_B,3,test,R,218,3,620,550,R,1,<rshift>,1,1,550379,258
Control_TS_3_B,3,test,R,219,3,620,550,P,0,NONE,0,1,551380,950
Control_TS_3_B,3,test,R,220,4,820,550,R,1,<rshift>,1,1,552379,304
Control_TS_3_B,3,test,R,221,1,620,350,R,1,<rshift>,1,1,553380,290
Control_TS_3_B,3,test,R,222,4,820,550,P,0,NONE,0,1,554379,950
Control_TS_3_B,3,test,R,223,2,820,350,R,1,<rshift>,1,1,555379,427
Control_TS_3_B,3,test,R,224,3,620,550,R,1,<rshift>,1,1,556379,351
Control_TS_3_B,3,test,R,225,2,820,350,R,1,<rshift>,1,1,557379,329
Control_TS_3_B,3,test,R,226,2,820,350,R,1,<rshift>,1,1,558379,334
Control_TS_3_B,3,test,R,227,2,820,350,R,1,<rshift>,1,1,559379,341
Control_TS_3_B,3,test,R,228,2,820,350,R,1,<rshift>,1,1,560379,391
Control_TS_3_B,3,test,R,229,1,620,350,R,1,<rshift>,1,1,561379,289
Control_TS_3_B,3,test,R,230,4,820,550,R,1,<rshift>,1,1,562380,411
Control_TS_3_B,3,test,R,231,2,820,350,R,1,<rshift>,1,1,563379,315
Control_TS_3_B,3,test,R,232,4,820,550,R,1,<rshift>,1,1,564379,272
Control_TS_3_B,3,test,R,233,3,620,550,R,1,<rshift>,1,1,565379,300
Control_TS_3_B,3,test,R,234,1,620,350,R,1,<rshift>,1,1,566379,305
Control_TS_3_B,3,test,R,235,3,620,550,R,1,<rshift>,1,1,567380,295
Control_TS_3_B,3,test,R,236,2,820,350,R,1,<rshift>,1,1,568379,313
Control_TS_3_B,3,test,R,237,2,820,350,R,1,<rshift>,1,1,569379,322
Control_TS_3_B,3,test,R,238,1,620,350,R,1,<rshift>,1,1,570379,356
Control_TS_3_B,3,test,R,239,2,820,350,R,1,<rshift>,1,1,571379,315
Control_TS_3_B,3,test,R,240,1,620,350,R,1,<rshift>,1,1,572379,321
Control_TS_3_B,3,test,R,241,4,820,550,R,1,<rshift>,1,1,573379,342
Control_TS_3_B,3,test,R,242,2,820,350,R,1,<rshift>,1,1,574379,324
Control_TS_3_B,3,test,R,243,3,620,550,R,1,<rshift>,1,1,575379,308
Control_TS_3_B,3,test,R,244,1,620,350,R,1,<rshift>,1,1,576379,297
Control_TS_3_B,3,test,R,245,4,820,550,P,0,<rshift>,1,0,577379,304
Control_TS_3_B,3,test,R,246,2,820,350,R,1,<rshift>,1,1,578379,354
Control_TS_3_B,3,test,R,247,2,820,350,R,1,<rshift>,1,1,579379,309
Control_TS_3_B,3,test,R,248,4,820,550,P,0,<rshift>,1,0,580379,413
Control_TS_3_B,3,test,R,249,2,820,350,R,1,<rshift>,1,1,581379,364
Control_TS_3_B,3,test,R,250,3,620,550,R,1,<rshift>,1,1,582379,406
Control_TS_3_B,3,test,R,251,4,820,550,P,0,<rshift>,1,0,583379,415
Control_TS_3_B,3,test,R,252,3,620,550,R,1,<rshift>,1,1,584379,326
Control_TS_3_B,3,test,R,253,1,620,350,R,1,<rshift>,1,1,585379,314
Control_TS_3_B,3,test,R,254,4,820,550,R,1,<rshift>,1,1,586379,422
Control_TS_3_B,3,test,R,255,3,620,550,R,1,<rshift>,1,1,587379,382
Control_TS_3_B,3,test,R,256,1,620,350,R,1,<rshift>,1,1,588380,483
Control_TS_3_B,3,test,R,257,2,820,350,R,1,<rshift>,1,1,589379,373
Control_TS_3_B,3,test,R,258,1,620,350,P,0,<rshift>,1,0,590379,407
Control_TS_3_B,3,test,R,259,3,620,550,R,1,<rshift>,1,1,591379,399
Control_TS_3_B,3,test,R,260,3,620,550,R,1,<rshift>,1,1,592379,592
Control_TS_3_B,3,test,R,261,4,820,550,R,1,<rshift>,1,1,593379,477
Control_TS_3_B,3,test,R,262,1,620,350,R,1,<rshift>,1,1,594379,373
Control_TS_3_B,3,test,R,263,2,820,350,R,1,<rshift>,1,1,595379,378
Control_TS_3_B,3,test,R,264,4,820,550,P,0,NONE,0,1,596379,950
Control_TS_3_B,3,test,R,265,2,820,350,R,1,<rshift>,1,1,597379,383
Control_TS_3_B,3,test,R,266,1,620,350,R,1,<rshift>,1,1,598379,426
Control_TS_3_B,3,test,R,267,2,820,350,R,1,<rshift>,1,1,599379,398
Control_TS_3_B,3,test,R,268,2,820,350,R,1,<rshift>,1,1,600379,515
Control_TS_3_B,3,test,R,269,4,820,550,R,1,<rshift>,1,1,601379,449
Control_TS_3_B,3,test,R,270,1,620,350,R,1,<rshift>,1,1,602379,629
Control_TS_3_B,3,test,R,271,4,820,550,P,0,<rshift>,1,0,603380,308
Control_TS_3_B,3,test,R,272,4,820,550,R,1,<rshift>,1,1,604379,330
Control_TS_3_B,3,test,R,273,3,620,550,R,1,<rshift>,1,1,605379,355
Control_TS_3_B,3,test,R,274,3,620,550,R,1,<rshift>,1,1,606379,317
Control_TS_3_B,3,test,R,275,1,620,350,P,0,NONE,0,1,607379,950
Control_TS_3_B,3,test,R,276,4,820,550,R,1,<rshift>,1,1,608379,476
Control_TS_3_B,3,test,R,277,1,620,350,R,1,<rshift>,1,1,609379,397
Control_TS_3_B,3,test,R,278,4,820,550,R,1,<rshift>,1,1,610379,342
Control_TS_3_B,3,test,R,279,3,620,550,R,1,<rshift>,1,1,611379,399
Control_TS_3_B,3,test,R,280,3,620,550,R,1,<rshift>,1,1,612379,368
Control_TS_3_B,3,test,R,281,2,820,350,R,1,<rshift>,1,1,613379,293
Control_TS_3_B,3,test,R,282,1,620,350,R,1,<rshift>,1,1,614379,386
Control_TS_3_B,3,test,R,283,2,820,350,R,1,<rshift>,1,1,615379,288
Control_TS_3_B,3,test,R,284,3,620,550,R,1,<rshift>,1,1,616379,327
Control_TS_3_B,3,test,R,285,4,820,550,P,0,<rshift>,1,0,617379,304
Control_TS_3_B,3,test,R,286,4,820,550,R,1,<rshift>,1,1,618379,314
Control_TS_3_B,3,test,R,287,1,620,350,R,1,<rshift>,1,1,619380,359
Control_TS_3_B,3,test,R,288,2,820,350,R,1,<rshift>,1,1,620379,282
Control_TS_3_B,3,test,R,289,2,820,350,R,1,<rshift>,1,1,621379,314
Control_TS_3_B,3,test,R,290,3,620,550,R,1,<rshift>,1,1,622379,284
Control_TS_3_B,3,test,R,291,1,620,350,R,1,<rshift>,1,1,623380,311
Control_TS_3_B,3,test,R,292,4,820,550,R,1,<rshift>,1,1,624380,414
Control_TS_3_B,3,test,R,293,1,620,350,P,0,NONE,0,1,625379,950
Control_TS_3_B,3,test,R,294,3,620,550,R,1,<rshift>,1,1,626379,345
Control_TS_3_B,3,test,R,295,4,820,550,R,1,<rshift>,1,1,627379,282
Control_TS_3_B,3,test,R,296,2,820,350,R,1,<rshift>,1,1,628379,314
Control_TS_3_B,3,test,R,297,4,820,550,R,1,<rshift>,1,1,629379,332
Control_TS_3_B,3,test,R,298,1,620,350,R,1,<rshift>,1,1,630379,376
Control_TS_3_B,3,test,R,299,3,620,550,R,1,<rshift>,1,1,631379,405
Control_TS_3_B,3,test,R,300,3,620,550,R,1,<rshift>,1,1,632380,419
