"rt","responses","trial_type","trial_index","time_elapsed","internal_node_id","success","stimulus","button_pressed","adj_rew","choice","del_rew","del_m","last_ask"
"12491","{""Nome"":""Control_TS"",""Cognome"":""17_A_POST""}","survey-text","0","12510","0.0-0.0","","","","","","","",""
"","","fullscreen","1","15329","0.0-1.0","true","","","","","","",""
"7962","","html-button-response","2","23295","0.0-2.0-0.0","","<p>Scegli il premio:</p>","0","250","0","500","6","false"
"2114","","html-button-response","3","25411","0.0-2.0-1.0","","<p>Scegli il premio:</p>","1","375","0","500","6","false"
"897","","html-button-response","4","26310","0.0-2.0-2.0","","<p>Scegli il premio:</p>","1","438","0","500","6","false"
"2150","","html-button-response","5","28461","0.0-2.0-3.0","","<p>Scegli il premio:</p>","1","469","1","500","6","false"
"1047","","html-button-response","6","29510","0.0-2.0-4.0","","<p>Scegli il premio:</p>","1","454","1","500","6","false"
"1666.9999999999964","","html-button-response","7","31178","0.0-2.0-5.0","","<p>Scegli il premio:</p>","0","446","1","500","6","true"
"1347.9999999999964","","html-button-response","8","32528","0.0-2.0-0.1","","<p>Scegli il premio:</p>","1","5000","1","10000","60","false"
"964","","html-button-response","9","33493","0.0-2.0-1.1","","<p>Scegli il premio:</p>","1","2500","1","10000","60","false"
"1732.9999999999927","","html-button-response","10","35228","0.0-2.0-2.1","","<p>Scegli il premio:</p>","0","1250","1","10000","60","false"
"1516","","html-button-response","11","36746","0.0-2.0-3.1","","<p>Scegli il premio:</p>","0","625","0","10000","60","false"
"1079.9999999999927","","html-button-response","12","37828","0.0-2.0-4.1","","<p>Scegli il premio:</p>","0","938","1","10000","60","false"
"1330","","html-button-response","13","39161","0.0-2.0-5.1","","<p>Scegli il premio:</p>","1","782","1","10000","60","true"
"2015","","html-button-response","14","41178","0.0-2.0-0.2","","<p>Scegli il premio:</p>","1","250","0","500","120","false"
"1497","","html-button-response","15","42677","0.0-2.0-1.2","","<p>Scegli il premio:</p>","0","375","1","500","120","false"
"1949","","html-button-response","16","44628","0.0-2.0-2.2","","<p>Scegli il premio:</p>","1","313","1","500","120","false"
"1081","","html-button-response","17","45711","0.0-2.0-3.2","","<p>Scegli il premio:</p>","0","282","1","500","120","false"
"1083","","html-button-response","18","46796","0.0-2.0-4.2","","<p>Scegli il premio:</p>","0","266","1","500","120","false"
"631","","html-button-response","19","47428","0.0-2.0-5.2","","<p>Scegli il premio:</p>","0","258","1","500","120","true"
"2499","","html-button-response","20","49928","0.0-2.0-0.3","","<p>Scegli il premio:</p>","0","250","0","500","12","false"
"1498","","html-button-response","21","51428","0.0-2.0-1.3","","<p>Scegli il premio:</p>","1","375","1","500","12","false"
"2037","","html-button-response","22","53467","0.0-2.0-2.3","","<p>Scegli il premio:</p>","0","313","1","500","12","false"
"1810","","html-button-response","23","55278","0.0-2.0-3.3","","<p>Scegli il premio:</p>","1","282","1","500","12","false"
"1482","","html-button-response","24","56761","0.0-2.0-4.3","","<p>Scegli il premio:</p>","0","266","1","500","12","false"
"2147","","html-button-response","25","58910","0.0-2.0-5.3","","<p>Scegli il premio:</p>","0","258","1","500","12","true"
"1449","","html-button-response","26","60360","0.0-2.0-0.4","","<p>Scegli il premio:</p>","1","5000","1","10000","6","false"
"1182","","html-button-response","27","61544","0.0-2.0-1.4","","<p>Scegli il premio:</p>","0","2500","1","10000","6","false"
"1499","","html-button-response","28","63043","0.0-2.0-2.4","","<p>Scegli il premio:</p>","1","1250","1","10000","6","false"
"1200","","html-button-response","29","64244","0.0-2.0-3.4","","<p>Scegli il premio:</p>","1","625","0","10000","6","false"
"565.9999999999854","","html-button-response","30","64811","0.0-2.0-4.4","","<p>Scegli il premio:</p>","1","938","0","10000","6","false"
"833","","html-button-response","31","65646","0.0-2.0-5.4","","<p>Scegli il premio:</p>","1","1172","0","10000","6","true"
"1031.0000000000146","","html-button-response","32","66677","0.0-2.0-0.5","","<p>Scegli il premio:</p>","1","5000","0","10000","1","false"
"1081","","html-button-response","33","67760","0.0-2.0-1.5","","<p>Scegli il premio:</p>","1","7500","1","10000","1","false"
"3484","","html-button-response","34","71245","0.0-2.0-2.5","","<p>Scegli il premio:</p>","0","6250","1","10000","1","false"
"1601","","html-button-response","35","72847","0.0-2.0-3.5","","<p>Scegli il premio:</p>","1","5625","1","10000","1","false"
"1014","","html-button-response","36","73861","0.0-2.0-4.5","","<p>Scegli il premio:</p>","0","5313","0","10000","1","false"
"647","","html-button-response","37","74510","0.0-2.0-5.5","","<p>Scegli il premio:</p>","0","5547","0","10000","1","true"
"1549.0000000000146","","html-button-response","38","76061","0.0-2.0-0.6","","<p>Scegli il premio:</p>","0","250","0","500","24","false"
"2083","","html-button-response","39","78145","0.0-2.0-1.6","","<p>Scegli il premio:</p>","0","375","1","500","24","false"
"1665.0000000000146","","html-button-response","40","79811","0.0-2.0-2.6","","<p>Scegli il premio:</p>","0","313","0","500","24","false"
"982","","html-button-response","41","80794","0.0-2.0-3.6","","<p>Scegli il premio:</p>","0","344","0","500","24","false"
"765","","html-button-response","42","81560","0.0-2.0-4.6","","<p>Scegli il premio:</p>","0","360","0","500","24","false"
"932.9999999999854","","html-button-response","43","82494","0.0-2.0-5.6","","<p>Scegli il premio:</p>","0","371.5","0","500","24","true"
"1999","","html-button-response","44","84494","0.0-2.0-0.7","","<p>Scegli il premio:</p>","0","5000","1","10000","24","false"
"1733","","html-button-response","45","86228","0.0-2.0-1.7","","<p>Scegli il premio:</p>","1","2500","1","10000","24","false"
"1731","","html-button-response","46","87960","0.0-2.0-2.7","","<p>Scegli il premio:</p>","1","1250","1","10000","24","false"
"2848","","html-button-response","47","90810","0.0-2.0-3.7","","<p>Scegli il premio:</p>","0","625","1","10000","24","false"
"1615.0000000000146","","html-button-response","48","92427","0.0-2.0-4.7","","<p>Scegli il premio:</p>","1","313","1","10000","24","false"
"817","","html-button-response","49","93244","0.0-2.0-5.7","","<p>Scegli il premio:</p>","1","157","1","10000","24","true"
"1549","","html-button-response","50","94794","0.0-2.0-0.8","","<p>Scegli il premio:</p>","0","5000","1","10000","120","false"
"3297","","html-button-response","51","98093","0.0-2.0-1.8","","<p>Scegli il premio:</p>","0","2500","1","10000","120","false"
"950","","html-button-response","52","99044","0.0-2.0-2.8","","<p>Scegli il premio:</p>","0","1250","1","10000","120","false"
"2166","","html-button-response","53","101212","0.0-2.0-3.8","","<p>Scegli il premio:</p>","0","625","1","10000","120","false"
"2164","","html-button-response","54","103378","0.0-2.0-4.8","","<p>Scegli il premio:</p>","1","313","1","10000","120","false"
"1299","","html-button-response","55","104678","0.0-2.0-5.8","","<p>Scegli il premio:</p>","0","235","0","10000","120","true"
"1497","","html-button-response","56","106176","0.0-2.0-0.9","","<p>Scegli il premio:</p>","1","5000","1","10000","12","false"
"1351","","html-button-response","57","107528","0.0-2.0-1.9","","<p>Scegli il premio:</p>","0","2500","1","10000","12","false"
"1298","","html-button-response","58","108827","0.0-2.0-2.9","","<p>Scegli il premio:</p>","1","1250","1","10000","12","false"
"1899.9999999999854","","html-button-response","59","110728","0.0-2.0-3.9","","<p>Scegli il premio:</p>","0","625","1","10000","12","false"
"1798.0000000000146","","html-button-response","60","112526","0.0-2.0-4.9","","<p>Scegli il premio:</p>","0","313","1","10000","12","false"
"1065","","html-button-response","61","113593","0.0-2.0-5.9","","<p>Scegli il premio:</p>","1","235","0","10000","12","true"
"750","","html-button-response","62","114344","0.0-2.0-0.10","","<p>Scegli il premio:</p>","1","250","0","500","60","false"
"1066","","html-button-response","63","115411","0.0-2.0-1.10","","<p>Scegli il premio:</p>","0","375","0","500","60","false"
"1331","","html-button-response","64","116744","0.0-2.0-2.10","","<p>Scegli il premio:</p>","0","438","1","500","60","false"
"715","","html-button-response","65","117461","0.0-2.0-3.10","","<p>Scegli il premio:</p>","0","407","1","500","60","false"
"1631","","html-button-response","66","119094","0.0-2.0-4.10","","<p>Scegli il premio:</p>","1","391","1","500","60","false"
"1599.0000000000146","","html-button-response","67","120693","0.0-2.0-5.10","","<p>Scegli il premio:</p>","1","387","0","500","60","true"
"1900","","html-button-response","68","122594","0.0-2.0-0.11","","<p>Scegli il premio:</p>","1","250","1","500","1","false"
"1233","","html-button-response","69","123828","0.0-2.0-1.11","","<p>Scegli il premio:</p>","0","125","0","500","1","false"
"799","","html-button-response","70","124628","0.0-2.0-2.11","","<p>Scegli il premio:</p>","0","188","0","500","1","false"
"666","","html-button-response","71","125295","0.0-2.0-3.11","","<p>Scegli il premio:</p>","0","219","0","500","1","false"
"967","","html-button-response","72","126262","0.0-2.0-4.11","","<p>Scegli il premio:</p>","0","235","0","500","1","false"
"1182","","html-button-response","73","127444","0.0-2.0-5.11","","<p>Scegli il premio:</p>","1","246.5","0","500","1","true"
"2932.9999999999854","","html-button-response","74","130378","0.0-3.0","","<p>Grazie per aver partecipato. Clicca sul tasto 'Fine' per uscire.</p>","0","","","","",""
"","","fullscreen","75","131380","0.0-4.0","true","","","","","","",""
