"rt","responses","trial_type","trial_index","time_elapsed","internal_node_id","success","stimulus","button_pressed","adj_rew","choice","del_rew","del_m","last_ask"
"1820097.1000000238","{""Nome"":""CONTROL_TS"",""Cognome"":""14B_POST""}","survey-text","0","1820100","0.0-0.0","","","","","","","",""
"","","fullscreen","1","1829604","0.0-1.0","true","","","","","","",""
"1868.699999988079","","html-button-response","2","1831474","0.0-2.0-0.0","","<p>Scegli il premio:</p>","0","250","0","500","1","false"
"2842.600000023842","","html-button-response","3","1834318","0.0-2.0-1.0","","<p>Scegli il premio:</p>","0","375","0","500","1","false"
"2266.7000000178814","","html-button-response","4","1836585","0.0-2.0-2.0","","<p>Scegli il premio:</p>","0","438","0","500","1","false"
"1826.5999999940395","","html-button-response","5","1838413","0.0-2.0-3.0","","<p>Scegli il premio:</p>","0","469","0","500","1","false"
"1410.2999999821186","","html-button-response","6","1839824","0.0-2.0-4.0","","<p>Scegli il premio:</p>","0","485","0","500","1","false"
"1795","","html-button-response","7","1841620","0.0-2.0-5.0","","<p>Scegli il premio:</p>","0","493","1","500","1","true"
"2635","","html-button-response","8","1844256","0.0-2.0-0.1","","<p>Scegli il premio:</p>","0","250","0","500","60","false"
"1369.2000000178814","","html-button-response","9","1845626","0.0-2.0-1.1","","<p>Scegli il premio:</p>","1","375","0","500","60","false"
"1368.7999999821186","","html-button-response","10","1846996","0.0-2.0-2.1","","<p>Scegli il premio:</p>","1","438","0","500","60","false"
"1075.199999988079","","html-button-response","11","1848072","0.0-2.0-3.1","","<p>Scegli il premio:</p>","1","469","0","500","60","false"
"1379.800000011921","","html-button-response","12","1849453","0.0-2.0-4.1","","<p>Scegli il premio:</p>","0","485","1","500","60","false"
"1404.2999999821186","","html-button-response","13","1850858","0.0-2.0-5.1","","<p>Scegli il premio:</p>","1","481","0","500","60","true"
"1701.4000000059605","","html-button-response","14","1852560","0.0-2.0-0.2","","<p>Scegli il premio:</p>","1","5000","0","10000","6","false"
"1174.4000000059605","","html-button-response","15","1853735","0.0-2.0-1.2","","<p>Scegli il premio:</p>","1","7500","0","10000","6","false"
"1244.199999988079","","html-button-response","16","1854980","0.0-2.0-2.2","","<p>Scegli il premio:</p>","0","8750","0","10000","6","false"
"2025.0999999940395","","html-button-response","17","1857006","0.0-2.0-3.2","","<p>Scegli il premio:</p>","0","9375","0","10000","6","false"
"1703.9000000059605","","html-button-response","18","1858711","0.0-2.0-4.2","","<p>Scegli il premio:</p>","1","9688","1","10000","6","false"
"1124.5","","html-button-response","19","1859836","0.0-2.0-5.2","","<p>Scegli il premio:</p>","0","9610","0","10000","6","true"
"1518.4000000059605","","html-button-response","20","1861355","0.0-2.0-0.3","","<p>Scegli il premio:</p>","0","250","0","500","120","false"
"1077.699999988079","","html-button-response","21","1862434","0.0-2.0-1.3","","<p>Scegli il premio:</p>","1","375","0","500","120","false"
"1207.5999999940395","","html-button-response","22","1863642","0.0-2.0-2.3","","<p>Scegli il premio:</p>","1","438","0","500","120","false"
"1712.4000000059605","","html-button-response","23","1865355","0.0-2.0-3.3","","<p>Scegli il premio:</p>","0","469","0","500","120","false"
"1290","","html-button-response","24","1866646","0.0-2.0-4.3","","<p>Scegli il premio:</p>","1","485","1","500","120","false"
"2018.300000011921","","html-button-response","25","1868665","0.0-2.0-5.3","","<p>Scegli il premio:</p>","1","481","0","500","120","true"
"1349.5","","html-button-response","26","1870015","0.0-2.0-0.4","","<p>Scegli il premio:</p>","0","250","0","500","6","false"
"1269.2999999821186","","html-button-response","27","1871285","0.0-2.0-1.4","","<p>Scegli il premio:</p>","0","375","0","500","6","false"
"1530.300000011921","","html-button-response","28","1872817","0.0-2.0-2.4","","<p>Scegli il premio:</p>","1","438","0","500","6","false"
"2450.2999999821186","","html-button-response","29","1875268","0.0-2.0-3.4","","<p>Scegli il premio:</p>","1","469","0","500","6","false"
"2650.5999999940395","","html-button-response","30","1877919","0.0-2.0-4.4","","<p>Scegli il premio:</p>","0","485","1","500","6","false"
"1187.7999999821186","","html-button-response","31","1879108","0.0-2.0-5.4","","<p>Scegli il premio:</p>","0","481","0","500","6","true"
"1996.4000000059605","","html-button-response","32","1881105","0.0-2.0-0.5","","<p>Scegli il premio:</p>","0","5000","0","10000","1","false"
"1731.5","","html-button-response","33","1882837","0.0-2.0-1.5","","<p>Scegli il premio:</p>","0","7500","0","10000","1","false"
"1198","","html-button-response","34","1884036","0.0-2.0-2.5","","<p>Scegli il premio:</p>","1","8750","0","10000","1","false"
"1284.199999988079","","html-button-response","35","1885321","0.0-2.0-3.5","","<p>Scegli il premio:</p>","1","9375","0","10000","1","false"
"1103.0999999940395","","html-button-response","36","1886425","0.0-2.0-4.5","","<p>Scegli il premio:</p>","1","9688","0","10000","1","false"
"1913.199999988079","","html-button-response","37","1888339","0.0-2.0-5.5","","<p>Scegli il premio:</p>","0","9922","0","10000","1","true"
"2015.699999988079","","html-button-response","38","1890356","0.0-2.0-0.6","","<p>Scegli il premio:</p>","0","250","0","500","24","false"
"998.6999999880791","","html-button-response","39","1891355","0.0-2.0-1.6","","<p>Scegli il premio:</p>","1","375","0","500","24","false"
"980.2000000178814","","html-button-response","40","1892336","0.0-2.0-2.6","","<p>Scegli il premio:</p>","1","438","0","500","24","false"
"1520.7999999821186","","html-button-response","41","1893858","0.0-2.0-3.6","","<p>Scegli il premio:</p>","1","469","0","500","24","false"
"1435.699999988079","","html-button-response","42","1895295","0.0-2.0-4.6","","<p>Scegli il premio:</p>","1","485","1","500","24","false"
"1129.5999999940395","","html-button-response","43","1896425","0.0-2.0-5.6","","<p>Scegli il premio:</p>","1","481","0","500","24","true"
"1933.9000000059605","","html-button-response","44","1898360","0.0-2.0-0.7","","<p>Scegli il premio:</p>","1","5000","0","10000","120","false"
"1101.0999999940395","","html-button-response","45","1899461","0.0-2.0-1.7","","<p>Scegli il premio:</p>","1","7500","0","10000","120","false"
"1782.7999999821186","","html-button-response","46","1901245","0.0-2.0-2.7","","<p>Scegli il premio:</p>","0","8750","0","10000","120","false"
"928","","html-button-response","47","1902173","0.0-2.0-3.7","","<p>Scegli il premio:</p>","1","9375","0","10000","120","false"
"1325.699999988079","","html-button-response","48","1903500","0.0-2.0-4.7","","<p>Scegli il premio:</p>","1","9688","0","10000","120","false"
"1395.5","","html-button-response","49","1904896","0.0-2.0-5.7","","<p>Scegli il premio:</p>","1","9844","1","10000","120","true"
"1074.2000000178814","","html-button-response","50","1905971","0.0-2.0-0.8","","<p>Scegli il premio:</p>","1","250","0","500","12","false"
"1817.2000000178814","","html-button-response","51","1907789","0.0-2.0-1.8","","<p>Scegli il premio:</p>","0","375","0","500","12","false"
"1153.2999999821186","","html-button-response","52","1908943","0.0-2.0-2.8","","<p>Scegli il premio:</p>","1","438","0","500","12","false"
"1426.800000011921","","html-button-response","53","1910371","0.0-2.0-3.8","","<p>Scegli il premio:</p>","0","469","0","500","12","false"
"2044.300000011921","","html-button-response","54","1912416","0.0-2.0-4.8","","<p>Scegli il premio:</p>","0","485","1","500","12","false"
"1285.8999999761581","","html-button-response","55","1913703","0.0-2.0-5.8","","<p>Scegli il premio:</p>","0","481","0","500","12","true"
"5172.300000011921","","html-button-response","56","1918876","0.0-2.0-0.9","","<p>Scegli il premio:</p>","1","5000","0","10000","24","false"
"1236.0999999940395","","html-button-response","57","1920113","0.0-2.0-1.9","","<p>Scegli il premio:</p>","1","7500","0","10000","24","false"
"1770","","html-button-response","58","1921883","0.0-2.0-2.9","","<p>Scegli il premio:</p>","0","8750","0","10000","24","false"
"746.0999999940395","","html-button-response","59","1922630","0.0-2.0-3.9","","<p>Scegli il premio:</p>","0","9375","0","10000","24","false"
"1749.5999999940395","","html-button-response","60","1924380","0.0-2.0-4.9","","<p>Scegli il premio:</p>","0","9688","0","10000","24","false"
"1606.5","","html-button-response","61","1925988","0.0-2.0-5.9","","<p>Scegli il premio:</p>","0","9844","1","10000","24","true"
"1748.699999988079","","html-button-response","62","1927737","0.0-2.0-0.10","","<p>Scegli il premio:</p>","1","5000","0","10000","60","false"
"797.5","","html-button-response","63","1928536","0.0-2.0-1.10","","<p>Scegli il premio:</p>","1","7500","0","10000","60","false"
"801.4000000059605","","html-button-response","64","1929338","0.0-2.0-2.10","","<p>Scegli il premio:</p>","1","8750","0","10000","60","false"
"920.1999999880791","","html-button-response","65","1930259","0.0-2.0-3.10","","<p>Scegli il premio:</p>","1","9375","0","10000","60","false"
"982.5999999940395","","html-button-response","66","1931242","0.0-2.0-4.10","","<p>Scegli il premio:</p>","1","9688","0","10000","60","false"
"2879.600000023842","","html-button-response","67","1934123","0.0-2.0-5.10","","<p>Scegli il premio:</p>","0","9844","1","10000","60","true"
"2027.2000000178814","","html-button-response","68","1936151","0.0-2.0-0.11","","<p>Scegli il premio:</p>","1","5000","0","10000","12","false"
"999","","html-button-response","69","1937150","0.0-2.0-1.11","","<p>Scegli il premio:</p>","1","7500","0","10000","12","false"
"932.3999999761581","","html-button-response","70","1938084","0.0-2.0-2.11","","<p>Scegli il premio:</p>","1","8750","0","10000","12","false"
"1417.0999999940395","","html-button-response","71","1939502","0.0-2.0-3.11","","<p>Scegli il premio:</p>","0","9375","0","10000","12","false"
"1041.199999988079","","html-button-response","72","1940544","0.0-2.0-4.11","","<p>Scegli il premio:</p>","1","9688","0","10000","12","false"
"1847.7000000178814","","html-button-response","73","1942393","0.0-2.0-5.11","","<p>Scegli il premio:</p>","1","9844","1","10000","12","true"
"913.3000000119209","","html-button-response","74","1943307","0.0-3.0","","<p>Grazie per aver partecipato. Clicca sul tasto 'Fine' per uscire.</p>","0","","","","",""
"","","fullscreen","75","1944313","0.0-4.0","true","","","","","","",""
