"rt","responses","trial_type","trial_index","time_elapsed","internal_node_id","success","stimulus","button_pressed","adj_rew","choice","del_rew","del_m","last_ask"
"15086","{""Nome"":""CONTROL_TS"",""Cognome"":""24_B_POST""}","survey-text","0","15097","0.0-0.0","","","","","","","",""
"","","fullscreen","1","19433","0.0-1.0","true","","","","","","",""
"3875","","html-button-response","2","23310","0.0-2.0-0.0","","<p>Scegli il premio:</p>","0","5000","0","10000","6","false"
"2358.0000000000036","","html-button-response","3","25669","0.0-2.0-1.0","","<p>Scegli il premio:</p>","0","7500","0","10000","6","false"
"4255","","html-button-response","4","29925","0.0-2.0-2.0","","<p>Scegli il premio:</p>","0","8750","0","10000","6","false"
"2626","","html-button-response","5","32553","0.0-2.0-3.0","","<p>Scegli il premio:</p>","0","9375","0","10000","6","false"
"1218.0000000000073","","html-button-response","6","33772","0.0-2.0-4.0","","<p>Scegli il premio:</p>","1","9688","1","10000","6","false"
"4322.000000000007","","html-button-response","7","38095","0.0-2.0-5.0","","<p>Scegli il premio:</p>","1","9610","0","10000","6","true"
"4205","","html-button-response","8","42301","0.0-2.0-0.1","","<p>Scegli il premio:</p>","0","250","0","500","6","false"
"5079","","html-button-response","9","47382","0.0-2.0-1.1","","<p>Scegli il premio:</p>","1","375","0","500","6","false"
"1419","","html-button-response","10","48801","0.0-2.0-2.1","","<p>Scegli il premio:</p>","1","438","1","500","6","false"
"1389","","html-button-response","11","50190","0.0-2.0-3.1","","<p>Scegli il premio:</p>","0","407","0","500","6","false"
"1835.0000000000073","","html-button-response","12","52026","0.0-2.0-4.1","","<p>Scegli il premio:</p>","1","423","1","500","6","false"
"2069.0000000000073","","html-button-response","13","54095","0.0-2.0-5.1","","<p>Scegli il premio:</p>","0","419","0","500","6","true"
"2869.9999999999927","","html-button-response","14","56966","0.0-2.0-0.2","","<p>Scegli il premio:</p>","0","250","0","500","1","false"
"1603","","html-button-response","15","58570","0.0-2.0-1.2","","<p>Scegli il premio:</p>","1","375","0","500","1","false"
"8174","","html-button-response","16","66745","0.0-2.0-2.2","","<p>Scegli il premio:</p>","1","438","0","500","1","false"
"2575","","html-button-response","17","69321","0.0-2.0-3.2","","<p>Scegli il premio:</p>","0","469","0","500","1","false"
"1313.9999999999854","","html-button-response","18","70637","0.0-2.0-4.2","","<p>Scegli il premio:</p>","1","485","1","500","1","false"
"2128","","html-button-response","19","72766","0.0-2.0-5.2","","<p>Scegli il premio:</p>","1","477","1","500","1","true"
"2202","","html-button-response","20","74969","0.0-2.0-0.3","","<p>Scegli il premio:</p>","1","250","0","500","24","false"
"4278","","html-button-response","21","79248","0.0-2.0-1.3","","<p>Scegli il premio:</p>","0","375","0","500","24","false"
"1314","","html-button-response","22","80563","0.0-2.0-2.3","","<p>Scegli il premio:</p>","1","438","1","500","24","false"
"1522.9999999999854","","html-button-response","23","82087","0.0-2.0-3.3","","<p>Scegli il premio:</p>","0","407","1","500","24","false"
"1640","","html-button-response","24","83728","0.0-2.0-4.3","","<p>Scegli il premio:</p>","1","391","0","500","24","false"
"2018","","html-button-response","25","85746","0.0-2.0-5.3","","<p>Scegli il premio:</p>","1","399","1","500","24","true"
"3300","","html-button-response","26","89048","0.0-2.0-0.4","","<p>Scegli il premio:</p>","1","5000","0","10000","60","false"
"4222","","html-button-response","27","93271","0.0-2.0-1.4","","<p>Scegli il premio:</p>","0","7500","0","10000","60","false"
"2540.0000000000146","","html-button-response","28","95812","0.0-2.0-2.4","","<p>Scegli il premio:</p>","1","8750","0","10000","60","false"
"2289","","html-button-response","29","98102","0.0-2.0-3.4","","<p>Scegli il premio:</p>","0","9375","1","10000","60","false"
"3220","","html-button-response","30","101323","0.0-2.0-4.4","","<p>Scegli il premio:</p>","1","9063","1","10000","60","false"
"1140.9999999999854","","html-button-response","31","102465","0.0-2.0-5.4","","<p>Scegli il premio:</p>","0","8985","0","10000","60","true"
"1805","","html-button-response","32","104270","0.0-2.0-0.5","","<p>Scegli il premio:</p>","0","5000","0","10000","12","false"
"1218","","html-button-response","33","105490","0.0-2.0-1.5","","<p>Scegli il premio:</p>","1","7500","0","10000","12","false"
"1402","","html-button-response","34","106893","0.0-2.0-2.5","","<p>Scegli il premio:</p>","1","8750","0","10000","12","false"
"1470","","html-button-response","35","108365","0.0-2.0-3.5","","<p>Scegli il premio:</p>","0","9375","1","10000","12","false"
"1935","","html-button-response","36","110301","0.0-2.0-4.5","","<p>Scegli il premio:</p>","0","9063","0","10000","12","false"
"2353","","html-button-response","37","112655","0.0-2.0-5.5","","<p>Scegli il premio:</p>","1","9219","1","10000","12","true"
"1838","","html-button-response","38","114494","0.0-2.0-0.6","","<p>Scegli il premio:</p>","1","250","0","500","12","false"
"1318","","html-button-response","39","115814","0.0-2.0-1.6","","<p>Scegli il premio:</p>","0","375","0","500","12","false"
"1123.0000000000146","","html-button-response","40","116938","0.0-2.0-2.6","","<p>Scegli il premio:</p>","0","438","0","500","12","false"
"2238","","html-button-response","41","119177","0.0-2.0-3.6","","<p>Scegli il premio:</p>","0","469","1","500","12","false"
"1512.0000000000146","","html-button-response","42","120691","0.0-2.0-4.6","","<p>Scegli il premio:</p>","0","454","1","500","12","false"
"2033","","html-button-response","43","122724","0.0-2.0-5.6","","<p>Scegli il premio:</p>","0","446","1","500","12","true"
"3502.0000000000146","","html-button-response","44","126226","0.0-2.0-0.7","","<p>Scegli il premio:</p>","1","250","1","500","60","false"
"2605.9999999999854","","html-button-response","45","128833","0.0-2.0-1.7","","<p>Scegli il premio:</p>","1","125","0","500","60","false"
"1680.999999999971","","html-button-response","46","130515","0.0-2.0-2.7","","<p>Scegli il premio:</p>","0","188","0","500","60","false"
"2597","","html-button-response","47","133113","0.0-2.0-3.7","","<p>Scegli il premio:</p>","1","219","0","500","60","false"
"1537.000000000029","","html-button-response","48","134651","0.0-2.0-4.7","","<p>Scegli il premio:</p>","1","235","1","500","60","false"
"2178","","html-button-response","49","136830","0.0-2.0-5.7","","<p>Scegli il premio:</p>","1","231","0","500","60","true"
"2500","","html-button-response","50","139332","0.0-2.0-0.8","","<p>Scegli il premio:</p>","0","5000","0","10000","1","false"
"938","","html-button-response","51","140271","0.0-2.0-1.8","","<p>Scegli il premio:</p>","0","7500","0","10000","1","false"
"1569","","html-button-response","52","141841","0.0-2.0-2.8","","<p>Scegli il premio:</p>","1","8750","0","10000","1","false"
"989","","html-button-response","53","142831","0.0-2.0-3.8","","<p>Scegli il premio:</p>","1","9375","0","10000","1","false"
"1468.000000000029","","html-button-response","54","144301","0.0-2.0-4.8","","<p>Scegli il premio:</p>","1","9688","0","10000","1","false"
"1696","","html-button-response","55","145997","0.0-2.0-5.8","","<p>Scegli il premio:</p>","0","9922","0","10000","1","true"
"2245","","html-button-response","56","148243","0.0-2.0-0.9","","<p>Scegli il premio:</p>","0","5000","0","10000","120","false"
"1770","","html-button-response","57","150014","0.0-2.0-1.9","","<p>Scegli il premio:</p>","1","7500","0","10000","120","false"
"1105.999999999971","","html-button-response","58","151120","0.0-2.0-2.9","","<p>Scegli il premio:</p>","1","8750","0","10000","120","false"
"2253","","html-button-response","59","153375","0.0-2.0-3.9","","<p>Scegli il premio:</p>","0","9375","0","10000","120","false"
"1219","","html-button-response","60","154594","0.0-2.0-4.9","","<p>Scegli il premio:</p>","0","9688","1","10000","120","false"
"1664.000000000029","","html-button-response","61","156259","0.0-2.0-5.9","","<p>Scegli il premio:</p>","1","9532","1","10000","120","true"
"2020","","html-button-response","62","158281","0.0-2.0-0.10","","<p>Scegli il premio:</p>","0","5000","0","10000","24","false"
"4172","","html-button-response","63","162454","0.0-2.0-1.10","","<p>Scegli il premio:</p>","1","7500","0","10000","24","false"
"1007","","html-button-response","64","163462","0.0-2.0-2.10","","<p>Scegli il premio:</p>","1","8750","0","10000","24","false"
"1871","","html-button-response","65","165334","0.0-2.0-3.10","","<p>Scegli il premio:</p>","1","9375","1","10000","24","false"
"1861","","html-button-response","66","167196","0.0-2.0-4.10","","<p>Scegli il premio:</p>","0","9063","0","10000","24","false"
"1379","","html-button-response","67","168576","0.0-2.0-5.10","","<p>Scegli il premio:</p>","1","9219","1","10000","24","true"
"10536","","html-button-response","68","179113","0.0-2.0-0.11","","<p>Scegli il premio:</p>","0","250","1","500","120","false"
"1080","","html-button-response","69","180194","0.0-2.0-1.11","","<p>Scegli il premio:</p>","0","125","1","500","120","false"
"2067.999999999971","","html-button-response","70","182262","0.0-2.0-2.11","","<p>Scegli il premio:</p>","0","63","0","500","120","false"
"1686","","html-button-response","71","183950","0.0-2.0-3.11","","<p>Scegli il premio:</p>","0","94","0","500","120","false"
"3819.999999999971","","html-button-response","72","187771","0.0-2.0-4.11","","<p>Scegli il premio:</p>","0","110","1","500","120","false"
"2337.999999999971","","html-button-response","73","190110","0.0-2.0-5.11","","<p>Scegli il premio:</p>","0","102","1","500","120","true"
"2100","","html-button-response","74","192211","0.0-3.0","","<p>Grazie per aver partecipato. Clicca sul tasto 'Fine' per uscire.</p>","0","","","","",""
"","","fullscreen","75","193213","0.0-4.0","true","","","","","","",""
