"rt","responses","trial_type","trial_index","time_elapsed","internal_node_id","success","stimulus","button_pressed","adj_rew","choice","del_rew","del_m","last_ask"
"19842.000000000004","{""Nome"":""Control_TS"",""Cognome"":""16_B_POST""}","survey-text","0","19862","0.0-0.0","","","","","","","",""
"","","fullscreen","1","21715","0.0-1.0","true","","","","","","",""
"1978","","html-button-response","2","23698","0.0-2.0-0.0","","<p>Scegli il premio:</p>","1","250","1","500","24","false"
"912","","html-button-response","3","24613","0.0-2.0-1.0","","<p>Scegli il premio:</p>","0","125","1","500","24","false"
"934","","html-button-response","4","25547","0.0-2.0-2.0","","<p>Scegli il premio:</p>","1","63","0","500","24","false"
"1447.0000000000036","","html-button-response","5","26996","0.0-2.0-3.0","","<p>Scegli il premio:</p>","1","94","1","500","24","false"
"1865","","html-button-response","6","28863","0.0-2.0-4.0","","<p>Scegli il premio:</p>","0","79","1","500","24","false"
"699","","html-button-response","7","29563","0.0-2.0-5.0","","<p>Scegli il premio:</p>","1","75","0","500","24","true"
"2864","","html-button-response","8","32429","0.0-2.0-0.1","","<p>Scegli il premio:</p>","1","5000","0","10000","12","false"
"950","","html-button-response","9","33379","0.0-2.0-1.1","","<p>Scegli il premio:</p>","1","7500","1","10000","12","false"
"698","","html-button-response","10","34080","0.0-2.0-2.1","","<p>Scegli il premio:</p>","1","6250","1","10000","12","false"
"1233","","html-button-response","11","35314","0.0-2.0-3.1","","<p>Scegli il premio:</p>","1","5625","0","10000","12","false"
"1483","","html-button-response","12","36797","0.0-2.0-4.1","","<p>Scegli il premio:</p>","0","5938","0","10000","12","false"
"764.9999999999927","","html-button-response","13","37563","0.0-2.0-5.1","","<p>Scegli il premio:</p>","1","6094","1","10000","12","true"
"1516","","html-button-response","14","39080","0.0-2.0-0.2","","<p>Scegli il premio:</p>","1","250","1","500","12","false"
"1332","","html-button-response","15","40413","0.0-2.0-1.2","","<p>Scegli il premio:</p>","1","125","1","500","12","false"
"847.9999999999927","","html-button-response","16","41262","0.0-2.0-2.2","","<p>Scegli il premio:</p>","0","63","0","500","12","false"
"865","","html-button-response","17","42129","0.0-2.0-3.2","","<p>Scegli il premio:</p>","1","94","1","500","12","false"
"1749","","html-button-response","18","43880","0.0-2.0-4.2","","<p>Scegli il premio:</p>","0","79","0","500","12","false"
"2148","","html-button-response","19","46030","0.0-2.0-5.2","","<p>Scegli il premio:</p>","0","87","1","500","12","true"
"1633.0000000000073","","html-button-response","20","47664","0.0-2.0-0.3","","<p>Scegli il premio:</p>","0","250","1","500","60","false"
"531","","html-button-response","21","48196","0.0-2.0-1.3","","<p>Scegli il premio:</p>","0","125","1","500","60","false"
"997","","html-button-response","22","49195","0.0-2.0-2.3","","<p>Scegli il premio:</p>","1","63","1","500","60","false"
"900","","html-button-response","23","50096","0.0-2.0-3.3","","<p>Scegli il premio:</p>","0","32","0","500","60","false"
"767.0000000000073","","html-button-response","24","50865","0.0-2.0-4.3","","<p>Scegli il premio:</p>","1","48","1","500","60","false"
"1531","","html-button-response","25","52397","0.0-2.0-5.3","","<p>Scegli il premio:</p>","1","40","1","500","60","true"
"3398","","html-button-response","26","55796","0.0-2.0-0.4","","<p>Scegli il premio:</p>","0","250","1","500","6","false"
"1731.9999999999927","","html-button-response","27","57530","0.0-2.0-1.4","","<p>Scegli il premio:</p>","0","125","1","500","6","false"
"1116","","html-button-response","28","58646","0.0-2.0-2.4","","<p>Scegli il premio:</p>","0","63","0","500","6","false"
"916.0000000000073","","html-button-response","29","59564","0.0-2.0-3.4","","<p>Scegli il premio:</p>","1","94","0","500","6","false"
"947","","html-button-response","30","60513","0.0-2.0-4.4","","<p>Scegli il premio:</p>","1","110","1","500","6","false"
"1248.0000000000073","","html-button-response","31","61762","0.0-2.0-5.4","","<p>Scegli il premio:</p>","1","106","0","500","6","true"
"3033","","html-button-response","32","64796","0.0-2.0-0.5","","<p>Scegli il premio:</p>","1","5000","0","10000","6","false"
"1880","","html-button-response","33","66678","0.0-2.0-1.5","","<p>Scegli il premio:</p>","0","7500","0","10000","6","false"
"966","","html-button-response","34","67646","0.0-2.0-2.5","","<p>Scegli il premio:</p>","0","8750","1","10000","6","false"
"515","","html-button-response","35","68162","0.0-2.0-3.5","","<p>Scegli il premio:</p>","0","8125","1","10000","6","false"
"1083","","html-button-response","36","69246","0.0-2.0-4.5","","<p>Scegli il premio:</p>","0","7813","0","10000","6","false"
"648","","html-button-response","37","69896","0.0-2.0-5.5","","<p>Scegli il premio:</p>","1","7969","1","10000","6","true"
"2864","","html-button-response","38","72762","0.0-2.0-0.6","","<p>Scegli il premio:</p>","0","5000","0","10000","24","false"
"2899","","html-button-response","39","75662","0.0-2.0-1.6","","<p>Scegli il premio:</p>","0","7500","1","10000","24","false"
"1366","","html-button-response","40","77029","0.0-2.0-2.6","","<p>Scegli il premio:</p>","0","6250","1","10000","24","false"
"1216","","html-button-response","41","78245","0.0-2.0-3.6","","<p>Scegli il premio:</p>","1","5625","1","10000","24","false"
"733","","html-button-response","42","78980","0.0-2.0-4.6","","<p>Scegli il premio:</p>","1","5313","0","10000","24","false"
"1882","","html-button-response","43","80864","0.0-2.0-5.6","","<p>Scegli il premio:</p>","0","5547","0","10000","24","true"
"2481","","html-button-response","44","83346","0.0-2.0-0.7","","<p>Scegli il premio:</p>","1","5000","1","10000","120","false"
"1515","","html-button-response","45","84862","0.0-2.0-1.7","","<p>Scegli il premio:</p>","0","2500","1","10000","120","false"
"747","","html-button-response","46","85611","0.0-2.0-2.7","","<p>Scegli il premio:</p>","1","1250","0","10000","120","false"
"999","","html-button-response","47","86612","0.0-2.0-3.7","","<p>Scegli il premio:</p>","1","1875","0","10000","120","false"
"1849.0000000000146","","html-button-response","48","88462","0.0-2.0-4.7","","<p>Scegli il premio:</p>","1","2188","1","10000","120","false"
"1846","","html-button-response","49","90310","0.0-2.0-5.7","","<p>Scegli il premio:</p>","1","2110","0","10000","120","true"
"1868","","html-button-response","50","92179","0.0-2.0-0.8","","<p>Scegli il premio:</p>","0","250","1","500","120","false"
"797","","html-button-response","51","92978","0.0-2.0-1.8","","<p>Scegli il premio:</p>","0","125","1","500","120","false"
"1381.9999999999854","","html-button-response","52","94362","0.0-2.0-2.8","","<p>Scegli il premio:</p>","1","63","1","500","120","false"
"682","","html-button-response","53","95045","0.0-2.0-3.8","","<p>Scegli il premio:</p>","0","32","0","500","120","false"
"619","","html-button-response","54","95665","0.0-2.0-4.8","","<p>Scegli il premio:</p>","1","48","1","500","120","false"
"748","","html-button-response","55","96414","0.0-2.0-5.8","","<p>Scegli il premio:</p>","0","40","1","500","120","true"
"1312","","html-button-response","56","97728","0.0-2.0-0.9","","<p>Scegli il premio:</p>","1","5000","0","10000","1","false"
"831.9999999999854","","html-button-response","57","98562","0.0-2.0-1.9","","<p>Scegli il premio:</p>","0","7500","0","10000","1","false"
"669","","html-button-response","58","99231","0.0-2.0-2.9","","<p>Scegli il premio:</p>","1","8750","0","10000","1","false"
"1445.9999999999854","","html-button-response","59","100678","0.0-2.0-3.9","","<p>Scegli il premio:</p>","0","9375","0","10000","1","false"
"967","","html-button-response","60","101646","0.0-2.0-4.9","","<p>Scegli il premio:</p>","0","9688","1","10000","1","false"
"766","","html-button-response","61","102413","0.0-2.0-5.9","","<p>Scegli il premio:</p>","1","9610","0","10000","1","true"
"2631","","html-button-response","62","105046","0.0-2.0-0.10","","<p>Scegli il premio:</p>","0","5000","1","10000","60","false"
"5582","","html-button-response","63","110629","0.0-2.0-1.10","","<p>Scegli il premio:</p>","1","2500","1","10000","60","false"
"2749","","html-button-response","64","113379","0.0-2.0-2.10","","<p>Scegli il premio:</p>","1","1250","0","10000","60","false"
"815","","html-button-response","65","114195","0.0-2.0-3.10","","<p>Scegli il premio:</p>","1","1875","1","10000","60","false"
"1248.9999999999854","","html-button-response","66","115445","0.0-2.0-4.10","","<p>Scegli il premio:</p>","1","1563","0","10000","60","false"
"4283","","html-button-response","67","119729","0.0-2.0-5.10","","<p>Scegli il premio:</p>","1","1719","1","10000","60","true"
"2532","","html-button-response","68","122261","0.0-2.0-0.11","","<p>Scegli il premio:</p>","0","250","1","500","1","false"
"882","","html-button-response","69","123145","0.0-2.0-1.11","","<p>Scegli il premio:</p>","1","125","0","500","1","false"
"714.9999999999854","","html-button-response","70","123862","0.0-2.0-2.11","","<p>Scegli il premio:</p>","0","188","0","500","1","false"
"1816","","html-button-response","71","125679","0.0-2.0-3.11","","<p>Scegli il premio:</p>","0","219","0","500","1","false"
"915","","html-button-response","72","126595","0.0-2.0-4.11","","<p>Scegli il premio:</p>","0","235","1","500","1","false"
"750","","html-button-response","73","127346","0.0-2.0-5.11","","<p>Scegli il premio:</p>","0","227","1","500","1","true"
"2298","","html-button-response","74","129645","0.0-3.0","","<p>Grazie per aver partecipato. Clicca sul tasto 'Fine' per uscire.</p>","0","","","","",""
"","","fullscreen","75","130646","0.0-4.0","true","","","","","","",""
