"rt","responses","trial_type","trial_index","time_elapsed","internal_node_id","success","stimulus","button_pressed","adj_rew","choice","del_rew","del_m","last_ask"
"13511.000000000002","{""Nome"":""Control_TS"",""Cognome"":""13_A_PRE""}","survey-text","0","13526","0.0-0.0","","","","","","","",""
"","","fullscreen","1","135566","0.0-1.0","true","","","","","","",""
"4828","","html-button-response","2","140398","0.0-2.0-0.0","","<p>Scegli il premio:</p>","1","5000","1","10000","60","false"
"5913","","html-button-response","3","146314","0.0-2.0-1.0","","<p>Scegli il premio:</p>","1","2500","1","10000","60","false"
"7985.000000000029","","html-button-response","4","154301","0.0-2.0-2.0","","<p>Scegli il premio:</p>","1","1250","0","10000","60","false"
"2980","","html-button-response","5","157283","0.0-2.0-3.0","","<p>Scegli il premio:</p>","1","1875","0","10000","60","false"
"3334","","html-button-response","6","160619","0.0-2.0-4.0","","<p>Scegli il premio:</p>","0","2188","0","10000","60","false"
"2581","","html-button-response","7","163202","0.0-2.0-5.0","","<p>Scegli il premio:</p>","1","2422","0","10000","60","true"
"3712","","html-button-response","8","166916","0.0-2.0-0.1","","<p>Scegli il premio:</p>","0","250","1","500","24","false"
"3264","","html-button-response","9","170182","0.0-2.0-1.1","","<p>Scegli il premio:</p>","1","125","1","500","24","false"
"4604","","html-button-response","10","174787","0.0-2.0-2.1","","<p>Scegli il premio:</p>","1","63","0","500","24","false"
"1765","","html-button-response","11","176554","0.0-2.0-3.1","","<p>Scegli il premio:</p>","0","94","1","500","24","false"
"5361","","html-button-response","12","181916","0.0-2.0-4.1","","<p>Scegli il premio:</p>","1","79","1","500","24","false"
"5231","","html-button-response","13","187149","0.0-2.0-5.1","","<p>Scegli il premio:</p>","0","71","1","500","24","true"
"4267","","html-button-response","14","191418","0.0-2.0-0.2","","<p>Scegli il premio:</p>","0","5000","0","10000","6","false"
"1981","","html-button-response","15","193402","0.0-2.0-1.2","","<p>Scegli il premio:</p>","1","7500","1","10000","6","false"
"1784.999999999971","","html-button-response","16","195188","0.0-2.0-2.2","","<p>Scegli il premio:</p>","0","6250","0","10000","6","false"
"2164.999999999971","","html-button-response","17","197354","0.0-2.0-3.2","","<p>Scegli il premio:</p>","1","6875","1","10000","6","false"
"2698","","html-button-response","18","200054","0.0-2.0-4.2","","<p>Scegli il premio:</p>","1","6563","0","10000","6","false"
"6645","","html-button-response","19","206701","0.0-2.0-5.2","","<p>Scegli il premio:</p>","1","6719","1","10000","6","true"
"9549","","html-button-response","20","216252","0.0-2.0-0.3","","<p>Scegli il premio:</p>","0","5000","0","10000","24","false"
"2982","","html-button-response","21","219236","0.0-2.0-1.3","","<p>Scegli il premio:</p>","0","7500","1","10000","24","false"
"4032","","html-button-response","22","223270","0.0-2.0-2.3","","<p>Scegli il premio:</p>","0","6250","0","10000","24","false"
"3485","","html-button-response","23","226756","0.0-2.0-3.3","","<p>Scegli il premio:</p>","1","6875","0","10000","24","false"
"3111","","html-button-response","24","229869","0.0-2.0-4.3","","<p>Scegli il premio:</p>","0","7188","0","10000","24","false"
"2753.000000000029","","html-button-response","25","232624","0.0-2.0-5.3","","<p>Scegli il premio:</p>","1","7344","1","10000","24","true"
"2696","","html-button-response","26","235322","0.0-2.0-0.4","","<p>Scegli il premio:</p>","1","5000","1","10000","120","false"
"3299","","html-button-response","27","238623","0.0-2.0-1.4","","<p>Scegli il premio:</p>","1","2500","1","10000","120","false"
"2328","","html-button-response","28","240953","0.0-2.0-2.4","","<p>Scegli il premio:</p>","1","1250","1","10000","120","false"
"3248","","html-button-response","29","244203","0.0-2.0-3.4","","<p>Scegli il premio:</p>","1","625","0","10000","120","false"
"2349.000000000029","","html-button-response","30","246553","0.0-2.0-4.4","","<p>Scegli il premio:</p>","1","938","0","10000","120","false"
"4087","","html-button-response","31","250641","0.0-2.0-5.4","","<p>Scegli il premio:</p>","0","1172","0","10000","120","true"
"6098.999999999971","","html-button-response","32","256742","0.0-2.0-0.5","","<p>Scegli il premio:</p>","1","250","1","500","120","false"
"3162","","html-button-response","33","259905","0.0-2.0-1.5","","<p>Scegli il premio:</p>","1","125","1","500","120","false"
"5901","","html-button-response","34","265808","0.0-2.0-2.5","","<p>Scegli il premio:</p>","1","63","1","500","120","false"
"1464","","html-button-response","35","267275","0.0-2.0-3.5","","<p>Scegli il premio:</p>","1","32","0","500","120","false"
"1277.9999999999418","","html-button-response","36","268555","0.0-2.0-4.5","","<p>Scegli il premio:</p>","1","48","0","500","120","false"
"1814","","html-button-response","37","270370","0.0-2.0-5.5","","<p>Scegli il premio:</p>","1","59.5","0","500","120","true"
"3815","","html-button-response","38","274188","0.0-2.0-0.6","","<p>Scegli il premio:</p>","1","250","1","500","6","false"
"7051","","html-button-response","39","281241","0.0-2.0-1.6","","<p>Scegli il premio:</p>","1","125","1","500","6","false"
"729","","html-button-response","40","281972","0.0-2.0-2.6","","<p>Scegli il premio:</p>","0","63","0","500","6","false"
"5466","","html-button-response","41","287439","0.0-2.0-3.6","","<p>Scegli il premio:</p>","1","94","0","500","6","false"
"1216","","html-button-response","42","288656","0.0-2.0-4.6","","<p>Scegli il premio:</p>","1","110","0","500","6","false"
"7400","","html-button-response","43","296057","0.0-2.0-5.6","","<p>Scegli il premio:</p>","0","121.5","0","500","6","true"
"9385","","html-button-response","44","305444","0.0-2.0-0.7","","<p>Scegli il premio:</p>","1","5000","0","10000","12","false"
"3415.000000000058","","html-button-response","45","308862","0.0-2.0-1.7","","<p>Scegli il premio:</p>","1","7500","1","10000","12","false"
"9412","","html-button-response","46","318276","0.0-2.0-2.7","","<p>Scegli il premio:</p>","0","6250","0","10000","12","false"
"2549.000000000058","","html-button-response","47","320825","0.0-2.0-3.7","","<p>Scegli il premio:</p>","0","6875","0","10000","12","false"
"2914","","html-button-response","48","323741","0.0-2.0-4.7","","<p>Scegli il premio:</p>","1","7188","0","10000","12","false"
"6200","","html-button-response","49","329943","0.0-2.0-5.7","","<p>Scegli il premio:</p>","1","7422","0","10000","12","true"
"7767","","html-button-response","50","337712","0.0-2.0-0.8","","<p>Scegli il premio:</p>","0","250","1","500","12","false"
"1746","","html-button-response","51","339460","0.0-2.0-1.8","","<p>Scegli il premio:</p>","0","125","1","500","12","false"
"2282","","html-button-response","52","341743","0.0-2.0-2.8","","<p>Scegli il premio:</p>","1","63","0","500","12","false"
"1199","","html-button-response","53","342943","0.0-2.0-3.8","","<p>Scegli il premio:</p>","1","94","0","500","12","false"
"1832","","html-button-response","54","344777","0.0-2.0-4.8","","<p>Scegli il premio:</p>","1","110","0","500","12","false"
"3231.999999999942","","html-button-response","55","348010","0.0-2.0-5.8","","<p>Scegli il premio:</p>","0","121.5","0","500","12","true"
"3368","","html-button-response","56","351381","0.0-2.0-0.9","","<p>Scegli il premio:</p>","0","5000","0","10000","1","false"
"5077","","html-button-response","57","356460","0.0-2.0-1.9","","<p>Scegli il premio:</p>","1","7500","1","10000","1","false"
"1249","","html-button-response","58","357711","0.0-2.0-2.9","","<p>Scegli il premio:</p>","1","6250","1","10000","1","false"
"899","","html-button-response","59","358611","0.0-2.0-3.9","","<p>Scegli il premio:</p>","0","5625","0","10000","1","false"
"2214.999999999942","","html-button-response","60","360828","0.0-2.0-4.9","","<p>Scegli il premio:</p>","0","5938","0","10000","1","false"
"1683","","html-button-response","61","362513","0.0-2.0-5.9","","<p>Scegli il premio:</p>","0","6172","0","10000","1","true"
"4518","","html-button-response","62","367032","0.0-2.0-0.10","","<p>Scegli il premio:</p>","0","250","1","500","60","false"
"1395.0000000000582","","html-button-response","63","368428","0.0-2.0-1.10","","<p>Scegli il premio:</p>","0","125","1","500","60","false"
"1749.0000000000582","","html-button-response","64","370177","0.0-2.0-2.10","","<p>Scegli il premio:</p>","0","63","1","500","60","false"
"1767","","html-button-response","65","371946","0.0-2.0-3.10","","<p>Scegli il premio:</p>","1","32","0","500","60","false"
"2468","","html-button-response","66","374415","0.0-2.0-4.10","","<p>Scegli il premio:</p>","1","48","1","500","60","false"
"2781","","html-button-response","67","377198","0.0-2.0-5.10","","<p>Scegli il premio:</p>","0","44","0","500","60","true"
"4416","","html-button-response","68","381616","0.0-2.0-0.11","","<p>Scegli il premio:</p>","1","250","0","500","1","false"
"2994","","html-button-response","69","384612","0.0-2.0-1.11","","<p>Scegli il premio:</p>","0","375","0","500","1","false"
"851.9999999999418","","html-button-response","70","385465","0.0-2.0-2.11","","<p>Scegli il premio:</p>","1","438","1","500","1","false"
"6529","","html-button-response","71","391995","0.0-2.0-3.11","","<p>Scegli il premio:</p>","0","407","1","500","1","false"
"1931.0000000000582","","html-button-response","72","393928","0.0-2.0-4.11","","<p>Scegli il premio:</p>","1","391","1","500","1","false"
"2500","","html-button-response","73","396429","0.0-2.0-5.11","","<p>Scegli il premio:</p>","1","383","1","500","1","true"
"1300","","html-button-response","74","397732","0.0-3.0","","<p>Grazie per aver partecipato. Clicca sul tasto 'Fine' per uscire.</p>","0","","","","",""
"","","fullscreen","75","398734","0.0-4.0","true","","","","","","",""
