"rt","responses","trial_type","trial_index","time_elapsed","internal_node_id","success","stimulus","button_pressed","adj_rew","choice","del_rew","del_m","last_ask"
"13301","{""Nome"":""Control_TS"",""Cognome"":""23_A""}","survey-text","0","13310","0.0-0.0","","","","","","","",""
"","","fullscreen","1","32277","0.0-1.0","true","","","","","","",""
"3464.9999999999964","","html-button-response","2","35744","0.0-2.0-0.0","","<p>Scegli il premio:</p>","1","250","1","500","60","false"
"2905.0000000000073","","html-button-response","3","38650","0.0-2.0-1.0","","<p>Scegli il premio:</p>","0","125","1","500","60","false"
"3270","","html-button-response","4","41921","0.0-2.0-2.0","","<p>Scegli il premio:</p>","0","63","0","500","60","false"
"2040.0000000000073","","html-button-response","5","43961","0.0-2.0-3.0","","<p>Scegli il premio:</p>","0","94","0","500","60","false"
"1921","","html-button-response","6","45884","0.0-2.0-4.0","","<p>Scegli il premio:</p>","0","110","0","500","60","false"
"3469","","html-button-response","7","49353","0.0-2.0-5.0","","<p>Scegli il premio:</p>","0","118","1","500","60","true"
"2705","","html-button-response","8","52060","0.0-2.0-0.1","","<p>Scegli il premio:</p>","1","250","0","500","1","false"
"2489","","html-button-response","9","54550","0.0-2.0-1.1","","<p>Scegli il premio:</p>","1","375","0","500","1","false"
"3104","","html-button-response","10","57655","0.0-2.0-2.1","","<p>Scegli il premio:</p>","0","438","0","500","1","false"
"5500","","html-button-response","11","63156","0.0-2.0-3.1","","<p>Scegli il premio:</p>","0","469","1","500","1","false"
"3021.9999999999927","","html-button-response","12","66179","0.0-2.0-4.1","","<p>Scegli il premio:</p>","0","454","0","500","1","false"
"2022","","html-button-response","13","68202","0.0-2.0-5.1","","<p>Scegli il premio:</p>","0","465.5","0","500","1","true"
"4402","","html-button-response","14","72605","0.0-2.0-0.2","","<p>Scegli il premio:</p>","1","5000","1","10000","60","false"
"2772.0000000000146","","html-button-response","15","75379","0.0-2.0-1.2","","<p>Scegli il premio:</p>","1","2500","0","10000","60","false"
"2721","","html-button-response","16","78101","0.0-2.0-2.2","","<p>Scegli il premio:</p>","1","3750","0","10000","60","false"
"1455","","html-button-response","17","79557","0.0-2.0-3.2","","<p>Scegli il premio:</p>","1","4375","0","10000","60","false"
"2036","","html-button-response","18","81595","0.0-2.0-4.2","","<p>Scegli il premio:</p>","1","4688","0","10000","60","false"
"1089","","html-button-response","19","82684","0.0-2.0-5.2","","<p>Scegli il premio:</p>","1","4922","0","10000","60","true"
"5122","","html-button-response","20","87807","0.0-2.0-0.3","","<p>Scegli il premio:</p>","0","250","1","500","6","false"
"2732","","html-button-response","21","90540","0.0-2.0-1.3","","<p>Scegli il premio:</p>","1","125","0","500","6","false"
"1985","","html-button-response","22","92526","0.0-2.0-2.3","","<p>Scegli il premio:</p>","0","188","0","500","6","false"
"1985","","html-button-response","23","94512","0.0-2.0-3.3","","<p>Scegli il premio:</p>","0","219","0","500","6","false"
"2986","","html-button-response","24","97500","0.0-2.0-4.3","","<p>Scegli il premio:</p>","1","235","0","500","6","false"
"2201.9999999999854","","html-button-response","25","99703","0.0-2.0-5.3","","<p>Scegli il premio:</p>","0","246.5","0","500","6","true"
"4058","","html-button-response","26","103762","0.0-2.0-0.4","","<p>Scegli il premio:</p>","0","5000","1","10000","24","false"
"3171.9999999999854","","html-button-response","27","106935","0.0-2.0-1.4","","<p>Scegli il premio:</p>","1","2500","0","10000","24","false"
"3655","","html-button-response","28","110591","0.0-2.0-2.4","","<p>Scegli il premio:</p>","0","3750","0","10000","24","false"
"1839","","html-button-response","29","112430","0.0-2.0-3.4","","<p>Scegli il premio:</p>","0","4375","0","10000","24","false"
"3130","","html-button-response","30","115562","0.0-2.0-4.4","","<p>Scegli il premio:</p>","1","4688","0","10000","24","false"
"1994","","html-button-response","31","117556","0.0-2.0-5.4","","<p>Scegli il premio:</p>","1","4922","0","10000","24","true"
"2959.0000000000146","","html-button-response","32","120516","0.0-2.0-0.5","","<p>Scegli il premio:</p>","0","5000","0","10000","1","false"
"4384.999999999985","","html-button-response","33","124901","0.0-2.0-1.5","","<p>Scegli il premio:</p>","1","7500","0","10000","1","false"
"2013.0000000000146","","html-button-response","34","126916","0.0-2.0-2.5","","<p>Scegli il premio:</p>","0","8750","0","10000","1","false"
"3941","","html-button-response","35","130858","0.0-2.0-3.5","","<p>Scegli il premio:</p>","0","9375","0","10000","1","false"
"2552","","html-button-response","36","133411","0.0-2.0-4.5","","<p>Scegli il premio:</p>","1","9688","0","10000","1","false"
"1369","","html-button-response","37","134781","0.0-2.0-5.5","","<p>Scegli il premio:</p>","1","9922","0","10000","1","true"
"2319","","html-button-response","38","137101","0.0-2.0-0.6","","<p>Scegli il premio:</p>","1","250","1","500","12","false"
"2738","","html-button-response","39","139840","0.0-2.0-1.6","","<p>Scegli il premio:</p>","0","125","0","500","12","false"
"3138","","html-button-response","40","142979","0.0-2.0-2.6","","<p>Scegli il premio:</p>","1","188","0","500","12","false"
"1204.999999999971","","html-button-response","41","144185","0.0-2.0-3.6","","<p>Scegli il premio:</p>","1","219","0","500","12","false"
"1169.000000000029","","html-button-response","42","145355","0.0-2.0-4.6","","<p>Scegli il premio:</p>","1","235","0","500","12","false"
"1786","","html-button-response","43","147142","0.0-2.0-5.6","","<p>Scegli il premio:</p>","1","246.5","0","500","12","true"
"2169","","html-button-response","44","149312","0.0-2.0-0.7","","<p>Scegli il premio:</p>","1","250","1","500","120","false"
"2524","","html-button-response","45","151837","0.0-2.0-1.7","","<p>Scegli il premio:</p>","0","125","1","500","120","false"
"2283","","html-button-response","46","154122","0.0-2.0-2.7","","<p>Scegli il premio:</p>","1","63","1","500","120","false"
"2669","","html-button-response","47","156791","0.0-2.0-3.7","","<p>Scegli il premio:</p>","0","32","0","500","120","false"
"2919","","html-button-response","48","159711","0.0-2.0-4.7","","<p>Scegli il premio:</p>","0","48","1","500","120","false"
"2622.999999999971","","html-button-response","49","162336","0.0-2.0-5.7","","<p>Scegli il premio:</p>","1","40","1","500","120","true"
"3339","","html-button-response","50","165676","0.0-2.0-0.8","","<p>Scegli il premio:</p>","0","5000","0","10000","6","false"
"2245","","html-button-response","51","167921","0.0-2.0-1.8","","<p>Scegli il premio:</p>","1","7500","0","10000","6","false"
"1541.000000000029","","html-button-response","52","169463","0.0-2.0-2.8","","<p>Scegli il premio:</p>","1","8750","0","10000","6","false"
"620","","html-button-response","53","170084","0.0-2.0-3.8","","<p>Scegli il premio:</p>","1","9375","0","10000","6","false"
"2002","","html-button-response","54","172087","0.0-2.0-4.8","","<p>Scegli il premio:</p>","0","9688","0","10000","6","false"
"3551.999999999971","","html-button-response","55","175640","0.0-2.0-5.8","","<p>Scegli il premio:</p>","0","9922","0","10000","6","true"
"2623","","html-button-response","56","178264","0.0-2.0-0.9","","<p>Scegli il premio:</p>","0","5000","1","10000","120","false"
"2605","","html-button-response","57","180871","0.0-2.0-1.9","","<p>Scegli il premio:</p>","1","2500","1","10000","120","false"
"2727","","html-button-response","58","183598","0.0-2.0-2.9","","<p>Scegli il premio:</p>","1","1250","1","10000","120","false"
"2324","","html-button-response","59","185923","0.0-2.0-3.9","","<p>Scegli il premio:</p>","1","625","0","10000","120","false"
"3169","","html-button-response","60","189092","0.0-2.0-4.9","","<p>Scegli il premio:</p>","0","938","0","10000","120","false"
"3636","","html-button-response","61","192729","0.0-2.0-5.9","","<p>Scegli il premio:</p>","0","1172","0","10000","120","true"
"3297","","html-button-response","62","196026","0.0-2.0-0.10","","<p>Scegli il premio:</p>","1","5000","0","10000","12","false"
"1856","","html-button-response","63","197884","0.0-2.0-1.10","","<p>Scegli il premio:</p>","1","7500","0","10000","12","false"
"1292","","html-button-response","64","199177","0.0-2.0-2.10","","<p>Scegli il premio:</p>","1","8750","0","10000","12","false"
"2986","","html-button-response","65","202164","0.0-2.0-3.10","","<p>Scegli il premio:</p>","0","9375","0","10000","12","false"
"2569","","html-button-response","66","204734","0.0-2.0-4.10","","<p>Scegli il premio:</p>","1","9688","0","10000","12","false"
"3256","","html-button-response","67","207991","0.0-2.0-5.10","","<p>Scegli il premio:</p>","0","9922","0","10000","12","true"
"3157","","html-button-response","68","211148","0.0-2.0-0.11","","<p>Scegli il premio:</p>","1","250","1","500","24","false"
"2638.999999999971","","html-button-response","69","213788","0.0-2.0-1.11","","<p>Scegli il premio:</p>","1","125","1","500","24","false"
"1922","","html-button-response","70","215711","0.0-2.0-2.11","","<p>Scegli il premio:</p>","1","63","0","500","24","false"
"2506","","html-button-response","71","218218","0.0-2.0-3.11","","<p>Scegli il premio:</p>","0","94","0","500","24","false"
"4452","","html-button-response","72","222671","0.0-2.0-4.11","","<p>Scegli il premio:</p>","0","110","1","500","24","false"
"2170","","html-button-response","73","224842","0.0-2.0-5.11","","<p>Scegli il premio:</p>","0","106","0","500","24","true"
"1707","","html-button-response","74","226549","0.0-3.0","","<p>Grazie per aver partecipato. Clicca sul tasto 'Fine' per uscire.</p>","0","","","","",""
"","","fullscreen","75","227550","0.0-4.0","true","","","","","","",""
