"rt","responses","trial_type","trial_index","time_elapsed","internal_node_id","success","stimulus","button_pressed","adj_rew","choice","del_rew","del_m","last_ask"
"18224","{""Nome"":""CONTROL_TS"",""Cognome"":""8B_POST""}","survey-text","0","18238","0.0-0.0","","","","","","","",""
"","","fullscreen","1","65752","0.0-1.0","true","","","","","","",""
"3334","","html-button-response","2","69088","0.0-2.0-0.0","","<p>Scegli il premio:</p>","0","250","0","500","12","false"
"1678","","html-button-response","3","70767","0.0-2.0-1.0","","<p>Scegli il premio:</p>","0","375","0","500","12","false"
"2636","","html-button-response","4","73404","0.0-2.0-2.0","","<p>Scegli il premio:</p>","1","438","1","500","12","false"
"1978","","html-button-response","5","75383","0.0-2.0-3.0","","<p>Scegli il premio:</p>","1","407","0","500","12","false"
"3897","","html-button-response","6","79282","0.0-2.0-4.0","","<p>Scegli il premio:</p>","1","423","1","500","12","false"
"4403","","html-button-response","7","83687","0.0-2.0-5.0","","<p>Scegli il premio:</p>","1","419","0","500","12","true"
"3345","","html-button-response","8","87033","0.0-2.0-0.1","","<p>Scegli il premio:</p>","1","250","1","500","120","false"
"4099","","html-button-response","9","91133","0.0-2.0-1.1","","<p>Scegli il premio:</p>","1","125","1","500","120","false"
"2098.0000000000146","","html-button-response","10","93233","0.0-2.0-2.1","","<p>Scegli il premio:</p>","1","63","0","500","120","false"
"2298","","html-button-response","11","95533","0.0-2.0-3.1","","<p>Scegli il premio:</p>","0","94","0","500","120","false"
"1765","","html-button-response","12","97300","0.0-2.0-4.1","","<p>Scegli il premio:</p>","1","110","0","500","120","false"
"1431.0000000000146","","html-button-response","13","98733","0.0-2.0-5.1","","<p>Scegli il premio:</p>","0","121.5","0","500","120","true"
"3715.0000000000146","","html-button-response","14","102449","0.0-2.0-0.2","","<p>Scegli il premio:</p>","0","5000","0","10000","24","false"
"1852","","html-button-response","15","104304","0.0-2.0-1.2","","<p>Scegli il premio:</p>","1","7500","0","10000","24","false"
"1060","","html-button-response","16","105366","0.0-2.0-2.2","","<p>Scegli il premio:</p>","1","8750","1","10000","24","false"
"1332.0000000000146","","html-button-response","17","106699","0.0-2.0-3.2","","<p>Scegli il premio:</p>","1","8125","1","10000","24","false"
"2370","","html-button-response","18","109070","0.0-2.0-4.2","","<p>Scegli il premio:</p>","0","7813","0","10000","24","false"
"1628.0000000000146","","html-button-response","19","110699","0.0-2.0-5.2","","<p>Scegli il premio:</p>","0","8047","0","10000","24","true"
"2969","","html-button-response","20","113670","0.0-2.0-0.3","","<p>Scegli il premio:</p>","1","250","0","500","6","false"
"1261","","html-button-response","21","114933","0.0-2.0-1.3","","<p>Scegli il premio:</p>","1","375","0","500","6","false"
"1431.0000000000146","","html-button-response","22","116366","0.0-2.0-2.3","","<p>Scegli il premio:</p>","1","438","0","500","6","false"
"1998.0000000000146","","html-button-response","23","118366","0.0-2.0-3.3","","<p>Scegli il premio:</p>","0","469","1","500","6","false"
"1465.0000000000146","","html-button-response","24","119832","0.0-2.0-4.3","","<p>Scegli il premio:</p>","1","454","0","500","6","false"
"1698","","html-button-response","25","121532","0.0-2.0-5.3","","<p>Scegli il premio:</p>","0","462","1","500","6","true"
"1883","","html-button-response","26","123416","0.0-2.0-0.4","","<p>Scegli il premio:</p>","1","250","0","500","24","false"
"1182","","html-button-response","27","124599","0.0-2.0-1.4","","<p>Scegli il premio:</p>","1","375","0","500","24","false"
"1232.9999999999854","","html-button-response","28","125833","0.0-2.0-2.4","","<p>Scegli il premio:</p>","0","438","1","500","24","false"
"2067","","html-button-response","29","127901","0.0-2.0-3.4","","<p>Scegli il premio:</p>","0","407","1","500","24","false"
"948.0000000000146","","html-button-response","30","128851","0.0-2.0-4.4","","<p>Scegli il premio:</p>","1","391","0","500","24","false"
"2912","","html-button-response","31","131765","0.0-2.0-5.4","","<p>Scegli il premio:</p>","0","403","0","500","24","true"
"2249","","html-button-response","32","134016","0.0-2.0-0.5","","<p>Scegli il premio:</p>","1","5000","0","10000","120","false"
"980.9999999999709","","html-button-response","33","134999","0.0-2.0-1.5","","<p>Scegli il premio:</p>","1","7500","0","10000","120","false"
"1932","","html-button-response","34","136932","0.0-2.0-2.5","","<p>Scegli il premio:</p>","1","8750","1","10000","120","false"
"1549","","html-button-response","35","138482","0.0-2.0-3.5","","<p>Scegli il premio:</p>","0","8125","1","10000","120","false"
"1353","","html-button-response","36","139836","0.0-2.0-4.5","","<p>Scegli il premio:</p>","0","7813","0","10000","120","false"
"1211","","html-button-response","37","141049","0.0-2.0-5.5","","<p>Scegli il premio:</p>","0","8047","0","10000","120","true"
"2002","","html-button-response","38","143052","0.0-2.0-0.6","","<p>Scegli il premio:</p>","1","5000","0","10000","6","false"
"945","","html-button-response","39","143999","0.0-2.0-1.6","","<p>Scegli il premio:</p>","1","7500","0","10000","6","false"
"2482","","html-button-response","40","146482","0.0-2.0-2.6","","<p>Scegli il premio:</p>","1","8750","1","10000","6","false"
"2549","","html-button-response","41","149032","0.0-2.0-3.6","","<p>Scegli il premio:</p>","0","8125","0","10000","6","false"
"2369","","html-button-response","42","151403","0.0-2.0-4.6","","<p>Scegli il premio:</p>","1","8438","1","10000","6","false"
"1180.999999999971","","html-button-response","43","152584","0.0-2.0-5.6","","<p>Scegli il premio:</p>","0","8360","0","10000","6","true"
"2481","","html-button-response","44","155066","0.0-2.0-0.7","","<p>Scegli il premio:</p>","0","250","0","500","60","false"
"1398","","html-button-response","45","156466","0.0-2.0-1.7","","<p>Scegli il premio:</p>","0","375","1","500","60","false"
"1534","","html-button-response","46","158002","0.0-2.0-2.7","","<p>Scegli il premio:</p>","1","313","0","500","60","false"
"3894","","html-button-response","47","161898","0.0-2.0-3.7","","<p>Scegli il premio:</p>","0","344","0","500","60","false"
"1932.000000000029","","html-button-response","48","163832","0.0-2.0-4.7","","<p>Scegli il premio:</p>","1","360","0","500","60","false"
"1731","","html-button-response","49","165565","0.0-2.0-5.7","","<p>Scegli il premio:</p>","0","371.5","0","500","60","true"
"1898","","html-button-response","50","167465","0.0-2.0-0.8","","<p>Scegli il premio:</p>","1","5000","0","10000","12","false"
"1748","","html-button-response","51","169215","0.0-2.0-1.8","","<p>Scegli il premio:</p>","0","7500","0","10000","12","false"
"983","","html-button-response","52","170199","0.0-2.0-2.8","","<p>Scegli il premio:</p>","1","8750","1","10000","12","false"
"1265.999999999971","","html-button-response","53","171466","0.0-2.0-3.8","","<p>Scegli il premio:</p>","1","8125","1","10000","12","false"
"1165","","html-button-response","54","172632","0.0-2.0-4.8","","<p>Scegli il premio:</p>","0","7813","0","10000","12","false"
"2316","","html-button-response","55","174949","0.0-2.0-5.8","","<p>Scegli il premio:</p>","1","8047","0","10000","12","true"
"2263.999999999971","","html-button-response","56","177214","0.0-2.0-0.9","","<p>Scegli il premio:</p>","0","5000","0","10000","1","false"
"1286","","html-button-response","57","178502","0.0-2.0-1.9","","<p>Scegli il premio:</p>","1","7500","0","10000","1","false"
"1095","","html-button-response","58","179598","0.0-2.0-2.9","","<p>Scegli il premio:</p>","0","8750","0","10000","1","false"
"1066","","html-button-response","59","180665","0.0-2.0-3.9","","<p>Scegli il premio:</p>","1","9375","0","10000","1","false"
"1164.000000000029","","html-button-response","60","181831","0.0-2.0-4.9","","<p>Scegli il premio:</p>","1","9688","0","10000","1","false"
"1899","","html-button-response","61","183731","0.0-2.0-5.9","","<p>Scegli il premio:</p>","0","9922","0","10000","1","true"
"2037","","html-button-response","62","185769","0.0-2.0-0.10","","<p>Scegli il premio:</p>","1","5000","0","10000","60","false"
"1426.999999999971","","html-button-response","63","187198","0.0-2.0-1.10","","<p>Scegli il premio:</p>","0","7500","1","10000","60","false"
"3414.999999999971","","html-button-response","64","190614","0.0-2.0-2.10","","<p>Scegli il premio:</p>","0","6250","0","10000","60","false"
"1836","","html-button-response","65","192452","0.0-2.0-3.10","","<p>Scegli il premio:</p>","1","6875","0","10000","60","false"
"1011","","html-button-response","66","193464","0.0-2.0-4.10","","<p>Scegli il premio:</p>","1","7188","0","10000","60","false"
"1948","","html-button-response","67","195414","0.0-2.0-5.10","","<p>Scegli il premio:</p>","0","7422","0","10000","60","true"
"1798","","html-button-response","68","197214","0.0-2.0-0.11","","<p>Scegli il premio:</p>","1","250","0","500","1","false"
"1333","","html-button-response","69","198548","0.0-2.0-1.11","","<p>Scegli il premio:</p>","0","375","0","500","1","false"
"2281.999999999971","","html-button-response","70","200831","0.0-2.0-2.11","","<p>Scegli il premio:</p>","0","438","1","500","1","false"
"1402.000000000029","","html-button-response","71","202235","0.0-2.0-3.11","","<p>Scegli il premio:</p>","1","407","0","500","1","false"
"978","","html-button-response","72","203213","0.0-2.0-4.11","","<p>Scegli il premio:</p>","1","423","0","500","1","false"
"1683","","html-button-response","73","204897","0.0-2.0-5.11","","<p>Scegli il premio:</p>","0","434.5","0","500","1","true"
"3167","","html-button-response","74","208065","0.0-3.0","","<p>Grazie per aver partecipato. Clicca sul tasto 'Fine' per uscire.</p>","0","","","","",""
"","","fullscreen","75","209066","0.0-4.0","true","","","","","","",""
