"rt","responses","trial_type","trial_index","time_elapsed","internal_node_id","success","stimulus","button_pressed","adj_rew","choice","del_rew","del_m","last_ask"
"49865","{""Nome"":""CONTROL_TS"",""Cognome"":""8A_POST""}","survey-text","0","49870","0.0-0.0","","","","","","","",""
"","","fullscreen","1","64642","0.0-1.0","true","","","","","","",""
"3238.0000000000073","","html-button-response","2","67884","0.0-2.0-0.0","","<p>Scegli il premio:</p>","0","5000","0","10000","24","false"
"1627","","html-button-response","3","69514","0.0-2.0-1.0","","<p>Scegli il premio:</p>","0","7500","0","10000","24","false"
"1283","","html-button-response","4","70798","0.0-2.0-2.0","","<p>Scegli il premio:</p>","0","8750","1","10000","24","false"
"1731","","html-button-response","5","72530","0.0-2.0-3.0","","<p>Scegli il premio:</p>","0","8125","0","10000","24","false"
"2024","","html-button-response","6","74557","0.0-2.0-4.0","","<p>Scegli il premio:</p>","1","8438","1","10000","24","false"
"1067","","html-button-response","7","75627","0.0-2.0-5.0","","<p>Scegli il premio:</p>","1","8282","1","10000","24","true"
"1997","","html-button-response","8","77626","0.0-2.0-0.1","","<p>Scegli il premio:</p>","0","250","0","500","1","false"
"911","","html-button-response","9","78539","0.0-2.0-1.1","","<p>Scegli il premio:</p>","0","375","0","500","1","false"
"829","","html-button-response","10","79369","0.0-2.0-2.1","","<p>Scegli il premio:</p>","0","438","0","500","1","false"
"1213","","html-button-response","11","80585","0.0-2.0-3.1","","<p>Scegli il premio:</p>","0","469","1","500","1","false"
"1898.0000000000146","","html-button-response","12","82484","0.0-2.0-4.1","","<p>Scegli il premio:</p>","1","454","0","500","1","false"
"788","","html-button-response","13","83274","0.0-2.0-5.1","","<p>Scegli il premio:</p>","1","465.5","0","500","1","true"
"2142","","html-button-response","14","85418","0.0-2.0-0.2","","<p>Scegli il premio:</p>","1","250","0","500","120","false"
"1332","","html-button-response","15","86751","0.0-2.0-1.2","","<p>Scegli il premio:</p>","0","375","0","500","120","false"
"1107","","html-button-response","16","87860","0.0-2.0-2.2","","<p>Scegli il premio:</p>","1","438","0","500","120","false"
"934.9999999999854","","html-button-response","17","88797","0.0-2.0-3.2","","<p>Scegli il premio:</p>","1","469","0","500","120","false"
"1233","","html-button-response","18","90031","0.0-2.0-4.2","","<p>Scegli il premio:</p>","1","485","0","500","120","false"
"2474","","html-button-response","19","92506","0.0-2.0-5.2","","<p>Scegli il premio:</p>","1","493","1","500","120","true"
"1207","","html-button-response","20","93714","0.0-2.0-0.3","","<p>Scegli il premio:</p>","1","5000","0","10000","1","false"
"1202.9999999999854","","html-button-response","21","94919","0.0-2.0-1.3","","<p>Scegli il premio:</p>","0","7500","0","10000","1","false"
"1180","","html-button-response","22","96101","0.0-2.0-2.3","","<p>Scegli il premio:</p>","1","8750","0","10000","1","false"
"1249","","html-button-response","23","97350","0.0-2.0-3.3","","<p>Scegli il premio:</p>","0","9375","0","10000","1","false"
"3811","","html-button-response","24","101164","0.0-2.0-4.3","","<p>Scegli il premio:</p>","0","9688","1","10000","1","false"
"2035","","html-button-response","25","103201","0.0-2.0-5.3","","<p>Scegli il premio:</p>","0","9610","0","10000","1","true"
"1664","","html-button-response","26","104867","0.0-2.0-0.4","","<p>Scegli il premio:</p>","1","5000","0","10000","6","false"
"1373.0000000000146","","html-button-response","27","106243","0.0-2.0-1.4","","<p>Scegli il premio:</p>","0","7500","0","10000","6","false"
"1402","","html-button-response","28","107647","0.0-2.0-2.4","","<p>Scegli il premio:</p>","0","8750","1","10000","6","false"
"1230","","html-button-response","29","108880","0.0-2.0-3.4","","<p>Scegli il premio:</p>","0","8125","0","10000","6","false"
"1265","","html-button-response","30","110146","0.0-2.0-4.4","","<p>Scegli il premio:</p>","0","8438","0","10000","6","false"
"1725","","html-button-response","31","111873","0.0-2.0-5.4","","<p>Scegli il premio:</p>","1","8672","0","10000","6","true"
"1961","","html-button-response","32","113835","0.0-2.0-0.5","","<p>Scegli il premio:</p>","0","5000","0","10000","12","false"
"747","","html-button-response","33","114584","0.0-2.0-1.5","","<p>Scegli il premio:</p>","0","7500","0","10000","12","false"
"2069.9999999999854","","html-button-response","34","116655","0.0-2.0-2.5","","<p>Scegli il premio:</p>","0","8750","1","10000","12","false"
"1381","","html-button-response","35","118037","0.0-2.0-3.5","","<p>Scegli il premio:</p>","0","8125","0","10000","12","false"
"3621","","html-button-response","36","121659","0.0-2.0-4.5","","<p>Scegli il premio:</p>","0","8438","1","10000","12","false"
"1298","","html-button-response","37","122959","0.0-2.0-5.5","","<p>Scegli il premio:</p>","0","8360","0","10000","12","true"
"1398.0000000000146","","html-button-response","38","124359","0.0-2.0-0.6","","<p>Scegli il premio:</p>","1","250","0","500","60","false"
"1236.0000000000146","","html-button-response","39","125598","0.0-2.0-1.6","","<p>Scegli il premio:</p>","0","375","0","500","60","false"
"1082","","html-button-response","40","126681","0.0-2.0-2.6","","<p>Scegli il premio:</p>","0","438","0","500","60","false"
"1199.0000000000146","","html-button-response","41","127880","0.0-2.0-3.6","","<p>Scegli il premio:</p>","0","469","0","500","60","false"
"2240.0000000000146","","html-button-response","42","130122","0.0-2.0-4.6","","<p>Scegli il premio:</p>","0","485","1","500","60","false"
"1147","","html-button-response","43","131270","0.0-2.0-5.6","","<p>Scegli il premio:</p>","0","481","0","500","60","true"
"1448","","html-button-response","44","132721","0.0-2.0-0.7","","<p>Scegli il premio:</p>","0","5000","0","10000","120","false"
"921","","html-button-response","45","133643","0.0-2.0-1.7","","<p>Scegli il premio:</p>","0","7500","0","10000","120","false"
"980","","html-button-response","46","134625","0.0-2.0-2.7","","<p>Scegli il premio:</p>","0","8750","1","10000","120","false"
"1228","","html-button-response","47","135855","0.0-2.0-3.7","","<p>Scegli il premio:</p>","1","8125","1","10000","120","false"
"1320","","html-button-response","48","137176","0.0-2.0-4.7","","<p>Scegli il premio:</p>","1","7813","0","10000","120","false"
"1123","","html-button-response","49","138300","0.0-2.0-5.7","","<p>Scegli il premio:</p>","1","8047","0","10000","120","true"
"1535","","html-button-response","50","139838","0.0-2.0-0.8","","<p>Scegli il premio:</p>","0","250","0","500","24","false"
"828","","html-button-response","51","140669","0.0-2.0-1.8","","<p>Scegli il premio:</p>","0","375","0","500","24","false"
"1924","","html-button-response","52","142594","0.0-2.0-2.8","","<p>Scegli il premio:</p>","0","438","0","500","24","false"
"1033","","html-button-response","53","143630","0.0-2.0-3.8","","<p>Scegli il premio:</p>","1","469","1","500","24","false"
"1074","","html-button-response","54","144705","0.0-2.0-4.8","","<p>Scegli il premio:</p>","0","454","1","500","24","false"
"1115","","html-button-response","55","145821","0.0-2.0-5.8","","<p>Scegli il premio:</p>","0","446","1","500","24","true"
"1864","","html-button-response","56","147687","0.0-2.0-0.9","","<p>Scegli il premio:</p>","0","5000","0","10000","60","false"
"1563","","html-button-response","57","149251","0.0-2.0-1.9","","<p>Scegli il premio:</p>","1","7500","0","10000","60","false"
"3283.000000000029","","html-button-response","58","152535","0.0-2.0-2.9","","<p>Scegli il premio:</p>","0","8750","1","10000","60","false"
"1130.000000000029","","html-button-response","59","153667","0.0-2.0-3.9","","<p>Scegli il premio:</p>","1","8125","0","10000","60","false"
"2030","","html-button-response","60","155699","0.0-2.0-4.9","","<p>Scegli il premio:</p>","0","8438","0","10000","60","false"
"1325","","html-button-response","61","157026","0.0-2.0-5.9","","<p>Scegli il premio:</p>","0","8594","1","10000","60","true"
"1413","","html-button-response","62","158440","0.0-2.0-0.10","","<p>Scegli il premio:</p>","1","250","0","500","12","false"
"2938.999999999971","","html-button-response","63","161380","0.0-2.0-1.10","","<p>Scegli il premio:</p>","0","375","0","500","12","false"
"1450","","html-button-response","64","162831","0.0-2.0-2.10","","<p>Scegli il premio:</p>","0","438","1","500","12","false"
"1060","","html-button-response","65","163893","0.0-2.0-3.10","","<p>Scegli il premio:</p>","1","407","0","500","12","false"
"1167","","html-button-response","66","165062","0.0-2.0-4.10","","<p>Scegli il premio:</p>","0","423","0","500","12","false"
"1149","","html-button-response","67","166213","0.0-2.0-5.10","","<p>Scegli il premio:</p>","0","434.5","0","500","12","true"
"1795.999999999971","","html-button-response","68","168011","0.0-2.0-0.11","","<p>Scegli il premio:</p>","0","250","0","500","6","false"
"1271","","html-button-response","69","169285","0.0-2.0-1.11","","<p>Scegli il premio:</p>","1","375","0","500","6","false"
"822.9999999999709","","html-button-response","70","170109","0.0-2.0-2.11","","<p>Scegli il premio:</p>","0","438","1","500","6","false"
"1232","","html-button-response","71","171342","0.0-2.0-3.11","","<p>Scegli il premio:</p>","0","407","0","500","6","false"
"1436.000000000029","","html-button-response","72","172780","0.0-2.0-4.11","","<p>Scegli il premio:</p>","1","423","0","500","6","false"
"1183","","html-button-response","73","173964","0.0-2.0-5.11","","<p>Scegli il premio:</p>","0","434.5","0","500","6","true"
"1322","","html-button-response","74","175288","0.0-3.0","","<p>Grazie per aver partecipato. Clicca sul tasto 'Fine' per uscire.</p>","0","","","","",""
"","","fullscreen","75","176290","0.0-4.0","true","","","","","","",""
