"rt","responses","trial_type","trial_index","time_elapsed","internal_node_id","success","stimulus","button_pressed","adj_rew","choice","del_rew","del_m","last_ask"
"11982","{""Nome"":""CONTROL_TS"",""Cognome"":""24_A_PRE""}","survey-text","0","11989","0.0-0.0","","","","","","","",""
"","","fullscreen","1","21061","0.0-1.0","true","","","","","","",""
"9278","","html-button-response","2","30340","0.0-2.0-0.0","","<p>Scegli il premio:</p>","0","5000","0","10000","120","false"
"2885","","html-button-response","3","33227","0.0-2.0-1.0","","<p>Scegli il premio:</p>","1","7500","1","10000","120","false"
"5763","","html-button-response","4","38992","0.0-2.0-2.0","","<p>Scegli il premio:</p>","1","6250","0","10000","120","false"
"9029","","html-button-response","5","48021","0.0-2.0-3.0","","<p>Scegli il premio:</p>","0","6875","0","10000","120","false"
"3721","","html-button-response","6","51743","0.0-2.0-4.0","","<p>Scegli il premio:</p>","1","7188","0","10000","120","false"
"2456.0000000000073","","html-button-response","7","54200","0.0-2.0-5.0","","<p>Scegli il premio:</p>","0","7422","0","10000","120","true"
"3221","","html-button-response","8","57422","0.0-2.0-0.1","","<p>Scegli il premio:</p>","1","250","0","500","60","false"
"2639","","html-button-response","9","60063","0.0-2.0-1.1","","<p>Scegli il premio:</p>","0","375","1","500","60","false"
"2071.9999999999927","","html-button-response","10","62136","0.0-2.0-2.1","","<p>Scegli il premio:</p>","0","313","0","500","60","false"
"2235.9999999999927","","html-button-response","11","64373","0.0-2.0-3.1","","<p>Scegli il premio:</p>","1","344","0","500","60","false"
"5088.999999999993","","html-button-response","12","69462","0.0-2.0-4.1","","<p>Scegli il premio:</p>","0","360","0","500","60","false"
"945","","html-button-response","13","70409","0.0-2.0-5.1","","<p>Scegli il premio:</p>","0","371.5","0","500","60","true"
"2739.9999999999854","","html-button-response","14","73150","0.0-2.0-0.2","","<p>Scegli il premio:</p>","0","5000","0","10000","1","false"
"2486","","html-button-response","15","75637","0.0-2.0-1.2","","<p>Scegli il premio:</p>","1","7500","0","10000","1","false"
"1036","","html-button-response","16","76674","0.0-2.0-2.2","","<p>Scegli il premio:</p>","1","8750","0","10000","1","false"
"3835.9999999999854","","html-button-response","17","80511","0.0-2.0-3.2","","<p>Scegli il premio:</p>","0","9375","0","10000","1","false"
"2770","","html-button-response","18","83282","0.0-2.0-4.2","","<p>Scegli il premio:</p>","0","9688","1","10000","1","false"
"2989","","html-button-response","19","86273","0.0-2.0-5.2","","<p>Scegli il premio:</p>","0","9610","0","10000","1","true"
"4235","","html-button-response","20","90508","0.0-2.0-0.3","","<p>Scegli il premio:</p>","0","250","0","500","6","false"
"3571","","html-button-response","21","94080","0.0-2.0-1.3","","<p>Scegli il premio:</p>","1","375","0","500","6","false"
"2892","","html-button-response","22","96972","0.0-2.0-2.3","","<p>Scegli il premio:</p>","0","438","1","500","6","false"
"2097","","html-button-response","23","99070","0.0-2.0-3.3","","<p>Scegli il premio:</p>","0","407","0","500","6","false"
"3954","","html-button-response","24","103025","0.0-2.0-4.3","","<p>Scegli il premio:</p>","1","423","0","500","6","false"
"3003","","html-button-response","25","106029","0.0-2.0-5.3","","<p>Scegli il premio:</p>","0","434.5","0","500","6","true"
"2255","","html-button-response","26","108285","0.0-2.0-0.4","","<p>Scegli il premio:</p>","0","5000","0","10000","6","false"
"2120.9999999999854","","html-button-response","27","110406","0.0-2.0-1.4","","<p>Scegli il premio:</p>","1","7500","0","10000","6","false"
"2456","","html-button-response","28","112863","0.0-2.0-2.4","","<p>Scegli il premio:</p>","1","8750","0","10000","6","false"
"3738","","html-button-response","29","116602","0.0-2.0-3.4","","<p>Scegli il premio:</p>","1","9375","0","10000","6","false"
"1154","","html-button-response","30","117757","0.0-2.0-4.4","","<p>Scegli il premio:</p>","0","9688","1","10000","6","false"
"2726","","html-button-response","31","120484","0.0-2.0-5.4","","<p>Scegli il premio:</p>","1","9610","0","10000","6","true"
"5323","","html-button-response","32","125808","0.0-2.0-0.5","","<p>Scegli il premio:</p>","0","250","1","500","120","false"
"3323","","html-button-response","33","129133","0.0-2.0-1.5","","<p>Scegli il premio:</p>","0","125","0","500","120","false"
"2507","","html-button-response","34","131640","0.0-2.0-2.5","","<p>Scegli il premio:</p>","0","188","0","500","120","false"
"5521","","html-button-response","35","137163","0.0-2.0-3.5","","<p>Scegli il premio:</p>","1","219","0","500","120","false"
"4430","","html-button-response","36","141593","0.0-2.0-4.5","","<p>Scegli il premio:</p>","0","235","0","500","120","false"
"3019","","html-button-response","37","144613","0.0-2.0-5.5","","<p>Scegli il premio:</p>","1","246.5","0","500","120","true"
"2835","","html-button-response","38","147450","0.0-2.0-0.6","","<p>Scegli il premio:</p>","0","250","0","500","12","false"
"1407","","html-button-response","39","148857","0.0-2.0-1.6","","<p>Scegli il premio:</p>","0","375","0","500","12","false"
"2837","","html-button-response","40","151696","0.0-2.0-2.6","","<p>Scegli il premio:</p>","1","438","0","500","12","false"
"2255","","html-button-response","41","153951","0.0-2.0-3.6","","<p>Scegli il premio:</p>","0","469","1","500","12","false"
"2740","","html-button-response","42","156692","0.0-2.0-4.6","","<p>Scegli il premio:</p>","0","454","0","500","12","false"
"1602","","html-button-response","43","158294","0.0-2.0-5.6","","<p>Scegli il premio:</p>","1","462","1","500","12","true"
"2778","","html-button-response","44","161073","0.0-2.0-0.7","","<p>Scegli il premio:</p>","0","250","0","500","24","false"
"3135","","html-button-response","45","164208","0.0-2.0-1.7","","<p>Scegli il premio:</p>","1","375","0","500","24","false"
"3865","","html-button-response","46","168074","0.0-2.0-2.7","","<p>Scegli il premio:</p>","1","438","0","500","24","false"
"2335","","html-button-response","47","170410","0.0-2.0-3.7","","<p>Scegli il premio:</p>","0","469","1","500","24","false"
"2002","","html-button-response","48","172412","0.0-2.0-4.7","","<p>Scegli il premio:</p>","0","454","0","500","24","false"
"2939","","html-button-response","49","175352","0.0-2.0-5.7","","<p>Scegli il premio:</p>","0","462","1","500","24","true"
"1937","","html-button-response","50","177290","0.0-2.0-0.8","","<p>Scegli il premio:</p>","0","5000","0","10000","24","false"
"3791","","html-button-response","51","181083","0.0-2.0-1.8","","<p>Scegli il premio:</p>","1","7500","0","10000","24","false"
"2193","","html-button-response","52","183276","0.0-2.0-2.8","","<p>Scegli il premio:</p>","0","8750","0","10000","24","false"
"2608","","html-button-response","53","185885","0.0-2.0-3.8","","<p>Scegli il premio:</p>","1","9375","0","10000","24","false"
"1898","","html-button-response","54","187783","0.0-2.0-4.8","","<p>Scegli il premio:</p>","0","9688","0","10000","24","false"
"1850","","html-button-response","55","189635","0.0-2.0-5.8","","<p>Scegli il premio:</p>","1","9922","0","10000","24","true"
"2753","","html-button-response","56","192388","0.0-2.0-0.9","","<p>Scegli il premio:</p>","1","250","0","500","1","false"
"1719","","html-button-response","57","194109","0.0-2.0-1.9","","<p>Scegli il premio:</p>","1","375","0","500","1","false"
"1537","","html-button-response","58","195647","0.0-2.0-2.9","","<p>Scegli il premio:</p>","1","438","0","500","1","false"
"1008.0000000000291","","html-button-response","59","196656","0.0-2.0-3.9","","<p>Scegli il premio:</p>","1","469","0","500","1","false"
"1320","","html-button-response","60","197977","0.0-2.0-4.9","","<p>Scegli il premio:</p>","1","485","0","500","1","false"
"2885","","html-button-response","61","200863","0.0-2.0-5.9","","<p>Scegli il premio:</p>","0","493","1","500","1","true"
"2668.999999999971","","html-button-response","62","203533","0.0-2.0-0.10","","<p>Scegli il premio:</p>","1","5000","0","10000","12","false"
"2445","","html-button-response","63","205979","0.0-2.0-1.10","","<p>Scegli il premio:</p>","0","7500","0","10000","12","false"
"1591","","html-button-response","64","207572","0.0-2.0-2.10","","<p>Scegli il premio:</p>","0","8750","0","10000","12","false"
"1189","","html-button-response","65","208761","0.0-2.0-3.10","","<p>Scegli il premio:</p>","0","9375","0","10000","12","false"
"2568","","html-button-response","66","211330","0.0-2.0-4.10","","<p>Scegli il premio:</p>","1","9688","0","10000","12","false"
"2353","","html-button-response","67","213683","0.0-2.0-5.10","","<p>Scegli il premio:</p>","1","9922","0","10000","12","true"
"1719","","html-button-response","68","215403","0.0-2.0-0.11","","<p>Scegli il premio:</p>","1","5000","0","10000","60","false"
"6758","","html-button-response","69","222161","0.0-2.0-1.11","","<p>Scegli il premio:</p>","0","7500","0","10000","60","false"
"1339.999999999971","","html-button-response","70","223502","0.0-2.0-2.11","","<p>Scegli il premio:</p>","0","8750","0","10000","60","false"
"1771","","html-button-response","71","225275","0.0-2.0-3.11","","<p>Scegli il premio:</p>","0","9375","0","10000","60","false"
"1770.999999999971","","html-button-response","72","227047","0.0-2.0-4.11","","<p>Scegli il premio:</p>","1","9688","0","10000","60","false"
"1588","","html-button-response","73","228635","0.0-2.0-5.11","","<p>Scegli il premio:</p>","1","9922","0","10000","60","true"
"1963","","html-button-response","74","230598","0.0-3.0","","<p>Grazie per aver partecipato. Clicca sul tasto 'Fine' per uscire.</p>","0","","","","",""
"","","fullscreen","75","231600","0.0-4.0","true","","","","","","",""
