"rt","responses","trial_type","trial_index","time_elapsed","internal_node_id","success","stimulus","button_pressed","adj_rew","choice","del_rew","del_m","last_ask"
"21133","{""Nome"":""Control_TS"",""Cognome"":""17_A_PRE""}","survey-text","0","21152","0.0-0.0","","","","","","","",""
"","","fullscreen","1","23155","0.0-1.0","true","","","","","","",""
"4361","","html-button-response","2","27519","0.0-2.0-0.0","","<p>Scegli il premio:</p>","1","5000","1","10000","1","false"
"1449.9999999999964","","html-button-response","3","28969","0.0-2.0-1.0","","<p>Scegli il premio:</p>","1","2500","1","10000","1","false"
"1165","","html-button-response","4","30136","0.0-2.0-2.0","","<p>Scegli il premio:</p>","1","1250","1","10000","1","false"
"1380.9999999999964","","html-button-response","5","31519","0.0-2.0-3.0","","<p>Scegli il premio:</p>","1","625","0","10000","1","false"
"1134","","html-button-response","6","32655","0.0-2.0-4.0","","<p>Scegli il premio:</p>","1","938","1","10000","1","false"
"2297","","html-button-response","7","34954","0.0-2.0-5.0","","<p>Scegli il premio:</p>","0","782","1","10000","1","true"
"2146","","html-button-response","8","37102","0.0-2.0-0.1","","<p>Scegli il premio:</p>","0","250","0","500","6","false"
"1598.0000000000073","","html-button-response","9","38702","0.0-2.0-1.1","","<p>Scegli il premio:</p>","1","375","0","500","6","false"
"1487","","html-button-response","10","40190","0.0-2.0-2.1","","<p>Scegli il premio:</p>","1","438","1","500","6","false"
"1047","","html-button-response","11","41238","0.0-2.0-3.1","","<p>Scegli il premio:</p>","1","407","1","500","6","false"
"1030","","html-button-response","12","42269","0.0-2.0-4.1","","<p>Scegli il premio:</p>","1","391","0","500","6","false"
"1799","","html-button-response","13","44069","0.0-2.0-5.1","","<p>Scegli il premio:</p>","1","403","0","500","6","true"
"1565","","html-button-response","14","45636","0.0-2.0-0.2","","<p>Scegli il premio:</p>","0","5000","1","10000","24","false"
"863.9999999999927","","html-button-response","15","46501","0.0-2.0-1.2","","<p>Scegli il premio:</p>","0","2500","1","10000","24","false"
"1534","","html-button-response","16","48035","0.0-2.0-2.2","","<p>Scegli il premio:</p>","1","1250","1","10000","24","false"
"1965","","html-button-response","17","50002","0.0-2.0-3.2","","<p>Scegli il premio:</p>","0","625","1","10000","24","false"
"2798","","html-button-response","18","52802","0.0-2.0-4.2","","<p>Scegli il premio:</p>","0","313","0","10000","24","false"
"2319","","html-button-response","19","55122","0.0-2.0-5.2","","<p>Scegli il premio:</p>","1","469","1","10000","24","true"
"1679","","html-button-response","20","56803","0.0-2.0-0.3","","<p>Scegli il premio:</p>","0","250","1","500","120","false"
"1081","","html-button-response","21","57886","0.0-2.0-1.3","","<p>Scegli il premio:</p>","0","125","0","500","120","false"
"1331","","html-button-response","22","59219","0.0-2.0-2.3","","<p>Scegli il premio:</p>","0","188","0","500","120","false"
"2230","","html-button-response","23","61452","0.0-2.0-3.3","","<p>Scegli il premio:</p>","0","219","1","500","120","false"
"2565.9999999999927","","html-button-response","24","64020","0.0-2.0-4.3","","<p>Scegli il premio:</p>","0","204","0","500","120","false"
"1498.0000000000073","","html-button-response","25","65520","0.0-2.0-5.3","","<p>Scegli il premio:</p>","0","212","1","500","120","true"
"1464.0000000000146","","html-button-response","26","66986","0.0-2.0-0.4","","<p>Scegli il premio:</p>","1","250","1","500","24","false"
"1632.0000000000146","","html-button-response","27","68619","0.0-2.0-1.4","","<p>Scegli il premio:</p>","0","125","0","500","24","false"
"1414","","html-button-response","28","70036","0.0-2.0-2.4","","<p>Scegli il premio:</p>","0","188","0","500","24","false"
"2364","","html-button-response","29","72402","0.0-2.0-3.4","","<p>Scegli il premio:</p>","0","219","1","500","24","false"
"1848","","html-button-response","30","74253","0.0-2.0-4.4","","<p>Scegli il premio:</p>","1","204","0","500","24","false"
"2033","","html-button-response","31","76288","0.0-2.0-5.4","","<p>Scegli il premio:</p>","0","215.5","0","500","24","true"
"1497","","html-button-response","32","77787","0.0-2.0-0.5","","<p>Scegli il premio:</p>","0","5000","1","10000","6","false"
"1146","","html-button-response","33","78936","0.0-2.0-1.5","","<p>Scegli il premio:</p>","0","2500","0","10000","6","false"
"1697.0000000000146","","html-button-response","34","80634","0.0-2.0-2.5","","<p>Scegli il premio:</p>","1","3750","0","10000","6","false"
"1034","","html-button-response","35","81669","0.0-2.0-3.5","","<p>Scegli il premio:</p>","1","4375","0","10000","6","false"
"1548","","html-button-response","36","83219","0.0-2.0-4.5","","<p>Scegli il premio:</p>","1","4688","1","10000","6","false"
"1636","","html-button-response","37","84856","0.0-2.0-5.5","","<p>Scegli il premio:</p>","1","4610","0","10000","6","true"
"1095.9999999999854","","html-button-response","38","85953","0.0-2.0-0.6","","<p>Scegli il premio:</p>","1","250","0","500","12","false"
"1064","","html-button-response","39","87020","0.0-2.0-1.6","","<p>Scegli il premio:</p>","1","375","0","500","12","false"
"931","","html-button-response","40","87953","0.0-2.0-2.6","","<p>Scegli il premio:</p>","1","438","0","500","12","false"
"1932.0000000000146","","html-button-response","41","89887","0.0-2.0-3.6","","<p>Scegli il premio:</p>","0","469","0","500","12","false"
"2746","","html-button-response","42","92634","0.0-2.0-4.6","","<p>Scegli il premio:</p>","0","485","1","500","12","false"
"2702","","html-button-response","43","95337","0.0-2.0-5.6","","<p>Scegli il premio:</p>","0","481","0","500","12","true"
"1214","","html-button-response","44","96468","0.0-2.0-0.7","","<p>Scegli il premio:</p>","0","250","0","500","1","false"
"1132","","html-button-response","45","97602","0.0-2.0-1.7","","<p>Scegli il premio:</p>","0","375","0","500","1","false"
"882","","html-button-response","46","98485","0.0-2.0-2.7","","<p>Scegli il premio:</p>","0","438","0","500","1","false"
"1265","","html-button-response","47","99752","0.0-2.0-3.7","","<p>Scegli il premio:</p>","0","469","1","500","1","false"
"2797.0000000000146","","html-button-response","48","102552","0.0-2.0-4.7","","<p>Scegli il premio:</p>","0","454","0","500","1","false"
"1831","","html-button-response","49","104385","0.0-2.0-5.7","","<p>Scegli il premio:</p>","0","462","1","500","1","true"
"1715","","html-button-response","50","106101","0.0-2.0-0.8","","<p>Scegli il premio:</p>","0","5000","1","10000","12","false"
"848","","html-button-response","51","106950","0.0-2.0-1.8","","<p>Scegli il premio:</p>","0","2500","1","10000","12","false"
"1417","","html-button-response","52","108368","0.0-2.0-2.8","","<p>Scegli il premio:</p>","1","1250","1","10000","12","false"
"1449","","html-button-response","53","109818","0.0-2.0-3.8","","<p>Scegli il premio:</p>","0","625","1","10000","12","false"
"1313","","html-button-response","54","111134","0.0-2.0-4.8","","<p>Scegli il premio:</p>","1","313","0","10000","12","false"
"700","","html-button-response","55","111834","0.0-2.0-5.8","","<p>Scegli il premio:</p>","1","547","0","10000","12","true"
"1233","","html-button-response","56","113069","0.0-2.0-0.9","","<p>Scegli il premio:</p>","1","5000","1","10000","60","false"
"834","","html-button-response","57","113904","0.0-2.0-1.9","","<p>Scegli il premio:</p>","1","2500","1","10000","60","false"
"879","","html-button-response","58","114786","0.0-2.0-2.9","","<p>Scegli il premio:</p>","1","1250","1","10000","60","false"
"648.0000000000146","","html-button-response","59","115435","0.0-2.0-3.9","","<p>Scegli il premio:</p>","1","625","1","10000","60","false"
"715","","html-button-response","60","116151","0.0-2.0-4.9","","<p>Scegli il premio:</p>","1","313","1","10000","60","false"
"951","","html-button-response","61","117105","0.0-2.0-5.9","","<p>Scegli il premio:</p>","0","235","0","10000","60","true"
"1029","","html-button-response","62","118135","0.0-2.0-0.10","","<p>Scegli il premio:</p>","1","5000","1","10000","120","false"
"700.9999999999854","","html-button-response","63","118838","0.0-2.0-1.10","","<p>Scegli il premio:</p>","1","2500","1","10000","120","false"
"614","","html-button-response","64","119453","0.0-2.0-2.10","","<p>Scegli il premio:</p>","1","1250","1","10000","120","false"
"997","","html-button-response","65","120451","0.0-2.0-3.10","","<p>Scegli il premio:</p>","0","625","1","10000","120","false"
"1716","","html-button-response","66","122168","0.0-2.0-4.10","","<p>Scegli il premio:</p>","0","313","1","10000","120","false"
"2281.9999999999854","","html-button-response","67","124452","0.0-2.0-5.10","","<p>Scegli il premio:</p>","1","235","0","10000","120","true"
"2149","","html-button-response","68","126602","0.0-2.0-0.11","","<p>Scegli il premio:</p>","0","250","0","500","60","false"
"933","","html-button-response","69","127535","0.0-2.0-1.11","","<p>Scegli il premio:</p>","0","375","0","500","60","false"
"1648","","html-button-response","70","129185","0.0-2.0-2.11","","<p>Scegli il premio:</p>","0","438","0","500","60","false"
"1266","","html-button-response","71","130451","0.0-2.0-3.11","","<p>Scegli il premio:</p>","1","469","1","500","60","false"
"1114","","html-button-response","72","131568","0.0-2.0-4.11","","<p>Scegli il premio:</p>","1","454","1","500","60","false"
"898","","html-button-response","73","132468","0.0-2.0-5.11","","<p>Scegli il premio:</p>","1","446","1","500","60","true"
"2698","","html-button-response","74","135167","0.0-3.0","","<p>Grazie per aver partecipato. Clicca sul tasto 'Fine' per uscire.</p>","0","","","","",""
"","","fullscreen","75","136169","0.0-4.0","true","","","","","","",""
