"rt","responses","trial_type","trial_index","time_elapsed","internal_node_id","success","stimulus","button_pressed","adj_rew","choice","del_rew","del_m","last_ask"
"254299","{""Nome"":""CONTROL_TS"",""Cognome"":""7_A_PRE""}","survey-text","0","254305","0.0-0.0","","","","","","","",""
"","","fullscreen","1","269038","0.0-1.0","true","","","","","","",""
"9192","","html-button-response","2","278234","0.0-2.0-0.0","","<p>Scegli il premio:</p>","1","5000","1","10000","60","false"
"3431.000000000058","","html-button-response","3","281667","0.0-2.0-1.0","","<p>Scegli il premio:</p>","0","2500","0","10000","60","false"
"10883","","html-button-response","4","292552","0.0-2.0-2.0","","<p>Scegli il premio:</p>","0","3750","1","10000","60","false"
"8912.999999999942","","html-button-response","5","301466","0.0-2.0-3.0","","<p>Scegli il premio:</p>","1","3125","1","10000","60","false"
"1404","","html-button-response","6","302872","0.0-2.0-4.0","","<p>Scegli il premio:</p>","0","2813","0","10000","60","false"
"1099","","html-button-response","7","303972","0.0-2.0-5.0","","<p>Scegli il premio:</p>","0","3047","0","10000","60","true"
"3010","","html-button-response","8","306984","0.0-2.0-0.1","","<p>Scegli il premio:</p>","0","5000","1","10000","12","false"
"3164","","html-button-response","9","310150","0.0-2.0-1.1","","<p>Scegli il premio:</p>","1","2500","0","10000","12","false"
"1614.0000000000582","","html-button-response","10","311767","0.0-2.0-2.1","","<p>Scegli il premio:</p>","0","3750","0","10000","12","false"
"1348","","html-button-response","11","313117","0.0-2.0-3.1","","<p>Scegli il premio:</p>","1","4375","0","10000","12","false"
"2282","","html-button-response","12","315401","0.0-2.0-4.1","","<p>Scegli il premio:</p>","1","4688","0","10000","12","false"
"1881","","html-button-response","13","317284","0.0-2.0-5.1","","<p>Scegli il premio:</p>","1","4922","0","10000","12","true"
"2901.999999999942","","html-button-response","14","320188","0.0-2.0-0.2","","<p>Scegli il premio:</p>","1","250","1","500","120","false"
"2964","","html-button-response","15","323155","0.0-2.0-1.2","","<p>Scegli il premio:</p>","0","125","1","500","120","false"
"2679","","html-button-response","16","325834","0.0-2.0-2.2","","<p>Scegli il premio:</p>","1","63","1","500","120","false"
"1114","","html-button-response","17","326951","0.0-2.0-3.2","","<p>Scegli il premio:</p>","1","32","1","500","120","false"
"1349","","html-button-response","18","328301","0.0-2.0-4.2","","<p>Scegli il premio:</p>","1","16","1","500","120","false"
"2797.000000000058","","html-button-response","19","331100","0.0-2.0-5.2","","<p>Scegli il premio:</p>","1","12","0","500","120","true"
"2715","","html-button-response","20","333817","0.0-2.0-0.3","","<p>Scegli il premio:</p>","1","250","0","500","6","false"
"5164","","html-button-response","21","338984","0.0-2.0-1.3","","<p>Scegli il premio:</p>","1","375","1","500","6","false"
"2298","","html-button-response","22","341284","0.0-2.0-2.3","","<p>Scegli il premio:</p>","1","313","0","500","6","false"
"1865","","html-button-response","23","343150","0.0-2.0-3.3","","<p>Scegli il premio:</p>","1","344","0","500","6","false"
"3651.999999999942","","html-button-response","24","346805","0.0-2.0-4.3","","<p>Scegli il premio:</p>","1","360","1","500","6","false"
"3662","","html-button-response","25","350468","0.0-2.0-5.3","","<p>Scegli il premio:</p>","0","352","1","500","6","true"
"9715","","html-button-response","26","360184","0.0-2.0-0.4","","<p>Scegli il premio:</p>","0","250","1","500","24","false"
"914","","html-button-response","27","361100","0.0-2.0-1.4","","<p>Scegli il premio:</p>","0","125","1","500","24","false"
"1571","","html-button-response","28","362672","0.0-2.0-2.4","","<p>Scegli il premio:</p>","1","63","1","500","24","false"
"1299","","html-button-response","29","363973","0.0-2.0-3.4","","<p>Scegli il premio:</p>","1","32","1","500","24","false"
"1060","","html-button-response","30","365034","0.0-2.0-4.4","","<p>Scegli il premio:</p>","0","16","0","500","24","false"
"2969","","html-button-response","31","368005","0.0-2.0-5.4","","<p>Scegli il premio:</p>","1","28","0","500","24","true"
"2411","","html-button-response","32","370417","0.0-2.0-0.5","","<p>Scegli il premio:</p>","0","250","1","500","12","false"
"1065","","html-button-response","33","371484","0.0-2.0-1.5","","<p>Scegli il premio:</p>","0","125","1","500","12","false"
"4065.999999999942","","html-button-response","34","375552","0.0-2.0-2.5","","<p>Scegli il premio:</p>","0","63","0","500","12","false"
"2035","","html-button-response","35","377589","0.0-2.0-3.5","","<p>Scegli il premio:</p>","1","94","1","500","12","false"
"2698.000000000058","","html-button-response","36","380288","0.0-2.0-4.5","","<p>Scegli il premio:</p>","1","79","0","500","12","false"
"1899","","html-button-response","37","382188","0.0-2.0-5.5","","<p>Scegli il premio:</p>","1","87","1","500","12","true"
"3161","","html-button-response","38","385351","0.0-2.0-0.6","","<p>Scegli il premio:</p>","1","5000","1","10000","120","false"
"3998","","html-button-response","39","389350","0.0-2.0-1.6","","<p>Scegli il premio:</p>","1","2500","1","10000","120","false"
"1235","","html-button-response","40","390588","0.0-2.0-2.6","","<p>Scegli il premio:</p>","1","1250","1","10000","120","false"
"2227","","html-button-response","41","392817","0.0-2.0-3.6","","<p>Scegli il premio:</p>","0","625","0","10000","120","false"
"2301.999999999942","","html-button-response","42","395120","0.0-2.0-4.6","","<p>Scegli il premio:</p>","0","938","1","10000","120","false"
"2461.999999999942","","html-button-response","43","397584","0.0-2.0-5.6","","<p>Scegli il premio:</p>","0","782","1","10000","120","true"
"2298","","html-button-response","44","399883","0.0-2.0-0.7","","<p>Scegli il premio:</p>","1","5000","0","10000","1","false"
"4434","","html-button-response","45","404319","0.0-2.0-1.7","","<p>Scegli il premio:</p>","0","7500","0","10000","1","false"
"1267","","html-button-response","46","405588","0.0-2.0-2.7","","<p>Scegli il premio:</p>","0","8750","0","10000","1","false"
"1395.0000000000582","","html-button-response","47","406984","0.0-2.0-3.7","","<p>Scegli il premio:</p>","1","9375","0","10000","1","false"
"3214","","html-button-response","48","410200","0.0-2.0-4.7","","<p>Scegli il premio:</p>","0","9688","0","10000","1","false"
"2365","","html-button-response","49","412567","0.0-2.0-5.7","","<p>Scegli il premio:</p>","1","9844","1","10000","1","true"
"4167","","html-button-response","50","416737","0.0-2.0-0.8","","<p>Scegli il premio:</p>","1","250","1","500","60","false"
"1213","","html-button-response","51","417950","0.0-2.0-1.8","","<p>Scegli il premio:</p>","1","125","1","500","60","false"
"1714","","html-button-response","52","419667","0.0-2.0-2.8","","<p>Scegli il premio:</p>","0","63","1","500","60","false"
"1414.9999999999418","","html-button-response","53","421083","0.0-2.0-3.8","","<p>Scegli il premio:</p>","1","32","0","500","60","false"
"2032","","html-button-response","54","423117","0.0-2.0-4.8","","<p>Scegli il premio:</p>","1","48","1","500","60","false"
"7049","","html-button-response","55","430167","0.0-2.0-5.8","","<p>Scegli il premio:</p>","0","40","1","500","60","true"
"2735","","html-button-response","56","432904","0.0-2.0-0.9","","<p>Scegli il premio:</p>","1","250","0","500","1","false"
"1794.9999999999418","","html-button-response","57","434701","0.0-2.0-1.9","","<p>Scegli il premio:</p>","0","375","0","500","1","false"
"1597","","html-button-response","58","436300","0.0-2.0-2.9","","<p>Scegli il premio:</p>","0","438","1","500","1","false"
"2186","","html-button-response","59","438488","0.0-2.0-3.9","","<p>Scegli il premio:</p>","1","407","1","500","1","false"
"2678","","html-button-response","60","441167","0.0-2.0-4.9","","<p>Scegli il premio:</p>","0","391","1","500","1","false"
"1532","","html-button-response","61","442700","0.0-2.0-5.9","","<p>Scegli il premio:</p>","0","383","1","500","1","true"
"2650","","html-button-response","62","445352","0.0-2.0-0.10","","<p>Scegli il premio:</p>","1","5000","1","10000","24","false"
"1665.0000000000582","","html-button-response","63","447018","0.0-2.0-1.10","","<p>Scegli il premio:</p>","0","2500","1","10000","24","false"
"1731","","html-button-response","64","448750","0.0-2.0-2.10","","<p>Scegli il premio:</p>","0","1250","1","10000","24","false"
"1353","","html-button-response","65","450105","0.0-2.0-3.10","","<p>Scegli il premio:</p>","1","625","0","10000","24","false"
"1627","","html-button-response","66","451733","0.0-2.0-4.10","","<p>Scegli il premio:</p>","0","938","0","10000","24","false"
"2322","","html-button-response","67","454056","0.0-2.0-5.10","","<p>Scegli il premio:</p>","0","1172","0","10000","24","true"
"2260","","html-button-response","68","456317","0.0-2.0-0.11","","<p>Scegli il premio:</p>","1","5000","1","10000","6","false"
"5766","","html-button-response","69","462085","0.0-2.0-1.11","","<p>Scegli il premio:</p>","0","2500","1","10000","6","false"
"1765.0000000000582","","html-button-response","70","463852","0.0-2.0-2.11","","<p>Scegli il premio:</p>","0","1250","0","10000","6","false"
"1665","","html-button-response","71","465518","0.0-2.0-3.11","","<p>Scegli il premio:</p>","0","1875","0","10000","6","false"
"1085","","html-button-response","72","466605","0.0-2.0-4.11","","<p>Scegli il premio:</p>","1","2188","0","10000","6","false"
"1227.9999999999418","","html-button-response","73","467834","0.0-2.0-5.11","","<p>Scegli il premio:</p>","1","2422","0","10000","6","true"
"1136","","html-button-response","74","468972","0.0-3.0","","<p>Grazie per aver partecipato. Clicca sul tasto 'Fine' per uscire.</p>","0","","","","",""
"","","fullscreen","75","469974","0.0-4.0","true","","","","","","",""
