"rt","responses","trial_type","trial_index","time_elapsed","internal_node_id","success","stimulus","button_pressed","adj_rew","choice","del_rew","del_m","last_ask"
"27109","{""Nome"":""Control_TS"",""Cognome"":""25_A_PRE""}","survey-text","0","27137","0.0-0.0","","","","","","","",""
"","","fullscreen","1","32102","0.0-1.0","true","","","","","","",""
"2361","","html-button-response","2","34467","0.0-2.0-0.0","","<p>Scegli il premio:</p>","1","250","1","500","60","false"
"6547","","html-button-response","3","41016","0.0-2.0-1.0","","<p>Scegli il premio:</p>","0","125","1","500","60","false"
"5082","","html-button-response","4","46099","0.0-2.0-2.0","","<p>Scegli il premio:</p>","0","63","0","500","60","false"
"1852","","html-button-response","5","47954","0.0-2.0-3.0","","<p>Scegli il premio:</p>","0","94","0","500","60","false"
"5915","","html-button-response","6","53870","0.0-2.0-4.0","","<p>Scegli il premio:</p>","0","110","1","500","60","false"
"1378.9999999999927","","html-button-response","7","55250","0.0-2.0-5.0","","<p>Scegli il premio:</p>","0","102","1","500","60","true"
"1901.9999999999927","","html-button-response","8","57154","0.0-2.0-0.1","","<p>Scegli il premio:</p>","0","250","1","500","6","false"
"3182","","html-button-response","9","60337","0.0-2.0-1.1","","<p>Scegli il premio:</p>","0","125","0","500","6","false"
"6095","","html-button-response","10","66434","0.0-2.0-2.1","","<p>Scegli il premio:</p>","1","188","0","500","6","false"
"2049","","html-button-response","11","68484","0.0-2.0-3.1","","<p>Scegli il premio:</p>","0","219","0","500","6","false"
"1846","","html-button-response","12","70333","0.0-2.0-4.1","","<p>Scegli il premio:</p>","0","235","0","500","6","false"
"6949.000000000015","","html-button-response","13","77283","0.0-2.0-5.1","","<p>Scegli il premio:</p>","1","246.5","0","500","6","true"
"1847","","html-button-response","14","79132","0.0-2.0-0.2","","<p>Scegli il premio:</p>","1","250","0","500","1","false"
"2885","","html-button-response","15","82020","0.0-2.0-1.2","","<p>Scegli il premio:</p>","1","375","0","500","1","false"
"8929.999999999985","","html-button-response","16","90950","0.0-2.0-2.2","","<p>Scegli il premio:</p>","1","438","1","500","1","false"
"2682","","html-button-response","17","93632","0.0-2.0-3.2","","<p>Scegli il premio:</p>","1","407","0","500","1","false"
"7202","","html-button-response","18","100836","0.0-2.0-4.2","","<p>Scegli il premio:</p>","0","423","0","500","1","false"
"3179.0000000000146","","html-button-response","19","104017","0.0-2.0-5.2","","<p>Scegli il premio:</p>","0","431","1","500","1","true"
"3185","","html-button-response","20","107204","0.0-2.0-0.3","","<p>Scegli il premio:</p>","0","250","1","500","24","false"
"17749","","html-button-response","21","124954","0.0-2.0-1.3","","<p>Scegli il premio:</p>","0","125","1","500","24","false"
"1081.0000000000146","","html-button-response","22","126037","0.0-2.0-2.3","","<p>Scegli il premio:</p>","1","63","0","500","24","false"
"1327.9999999999854","","html-button-response","23","127367","0.0-2.0-3.3","","<p>Scegli il premio:</p>","0","94","0","500","24","false"
"2981","","html-button-response","24","130349","0.0-2.0-4.3","","<p>Scegli il premio:</p>","1","110","1","500","24","false"
"1781","","html-button-response","25","132132","0.0-2.0-5.3","","<p>Scegli il premio:</p>","1","106","0","500","24","true"
"4352.999999999971","","html-button-response","26","136486","0.0-2.0-0.4","","<p>Scegli il premio:</p>","1","250","0","500","12","false"
"2083","","html-button-response","27","138570","0.0-2.0-1.4","","<p>Scegli il premio:</p>","0","375","0","500","12","false"
"1282","","html-button-response","28","139854","0.0-2.0-2.4","","<p>Scegli il premio:</p>","0","438","1","500","12","false"
"2080","","html-button-response","29","141936","0.0-2.0-3.4","","<p>Scegli il premio:</p>","1","407","1","500","12","false"
"1544","","html-button-response","30","143482","0.0-2.0-4.4","","<p>Scegli il premio:</p>","1","391","0","500","12","false"
"1615.999999999971","","html-button-response","31","145099","0.0-2.0-5.4","","<p>Scegli il premio:</p>","1","403","0","500","12","true"
"6831","","html-button-response","32","151931","0.0-2.0-0.5","","<p>Scegli il premio:</p>","0","5000","1","10000","120","false"
"5266","","html-button-response","33","157199","0.0-2.0-1.5","","<p>Scegli il premio:</p>","0","2500","0","10000","120","false"
"1919.000000000029","","html-button-response","34","159120","0.0-2.0-2.5","","<p>Scegli il premio:</p>","0","3750","0","10000","120","false"
"2298","","html-button-response","35","161419","0.0-2.0-3.5","","<p>Scegli il premio:</p>","1","4375","0","10000","120","false"
"1729.000000000029","","html-button-response","36","163150","0.0-2.0-4.5","","<p>Scegli il premio:</p>","1","4688","0","10000","120","false"
"1248.000000000029","","html-button-response","37","164400","0.0-2.0-5.5","","<p>Scegli il premio:</p>","1","4922","0","10000","120","true"
"4385","","html-button-response","38","168787","0.0-2.0-0.6","","<p>Scegli il premio:</p>","1","5000","0","10000","6","false"
"1843.000000000029","","html-button-response","39","170632","0.0-2.0-1.6","","<p>Scegli il premio:</p>","1","7500","0","10000","6","false"
"5204","","html-button-response","40","175837","0.0-2.0-2.6","","<p>Scegli il premio:</p>","1","8750","0","10000","6","false"
"2463.999999999971","","html-button-response","41","178303","0.0-2.0-3.6","","<p>Scegli il premio:</p>","0","9375","1","10000","6","false"
"1283","","html-button-response","42","179586","0.0-2.0-4.6","","<p>Scegli il premio:</p>","0","9063","1","10000","6","false"
"982","","html-button-response","43","180570","0.0-2.0-5.6","","<p>Scegli il premio:</p>","1","8985","0","10000","6","true"
"2493","","html-button-response","44","183065","0.0-2.0-0.7","","<p>Scegli il premio:</p>","0","250","1","500","120","false"
"4165.000000000029","","html-button-response","45","187231","0.0-2.0-1.7","","<p>Scegli il premio:</p>","1","125","1","500","120","false"
"1137","","html-button-response","46","188369","0.0-2.0-2.7","","<p>Scegli il premio:</p>","0","63","0","500","120","false"
"1731","","html-button-response","47","190102","0.0-2.0-3.7","","<p>Scegli il premio:</p>","1","94","0","500","120","false"
"1566","","html-button-response","48","191669","0.0-2.0-4.7","","<p>Scegli il premio:</p>","1","110","1","500","120","false"
"2582","","html-button-response","49","194252","0.0-2.0-5.7","","<p>Scegli il premio:</p>","1","106","0","500","120","true"
"16667","","html-button-response","50","210919","0.0-2.0-0.8","","<p>Scegli il premio:</p>","1","5000","1","10000","60","false"
"1066.000000000029","","html-button-response","51","211986","0.0-2.0-1.8","","<p>Scegli il premio:</p>","0","2500","0","10000","60","false"
"1164","","html-button-response","52","213152","0.0-2.0-2.8","","<p>Scegli il premio:</p>","1","3750","0","10000","60","false"
"862.0000000000291","","html-button-response","53","214016","0.0-2.0-3.8","","<p>Scegli il premio:</p>","1","4375","0","10000","60","false"
"1235","","html-button-response","54","215252","0.0-2.0-4.8","","<p>Scegli il premio:</p>","1","4688","0","10000","60","false"
"645.9999999999709","","html-button-response","55","215899","0.0-2.0-5.8","","<p>Scegli il premio:</p>","1","4922","0","10000","60","true"
"3614","","html-button-response","56","219514","0.0-2.0-0.9","","<p>Scegli il premio:</p>","0","5000","0","10000","24","false"
"2732","","html-button-response","57","222248","0.0-2.0-1.9","","<p>Scegli il premio:</p>","1","7500","0","10000","24","false"
"1732","","html-button-response","58","223981","0.0-2.0-2.9","","<p>Scegli il premio:</p>","1","8750","0","10000","24","false"
"1833","","html-button-response","59","225816","0.0-2.0-3.9","","<p>Scegli il premio:</p>","1","9375","1","10000","24","false"
"1780","","html-button-response","60","227597","0.0-2.0-4.9","","<p>Scegli il premio:</p>","0","9063","1","10000","24","false"
"970.9999999999709","","html-button-response","61","228569","0.0-2.0-5.9","","<p>Scegli il premio:</p>","1","8985","0","10000","24","true"
"1831","","html-button-response","62","230401","0.0-2.0-0.10","","<p>Scegli il premio:</p>","0","5000","0","10000","1","false"
"1982.999999999971","","html-button-response","63","232385","0.0-2.0-1.10","","<p>Scegli il premio:</p>","1","7500","0","10000","1","false"
"1828","","html-button-response","64","234215","0.0-2.0-2.10","","<p>Scegli il premio:</p>","0","8750","0","10000","1","false"
"882.0000000000291","","html-button-response","65","235098","0.0-2.0-3.10","","<p>Scegli il premio:</p>","0","9375","0","10000","1","false"
"735","","html-button-response","66","235835","0.0-2.0-4.10","","<p>Scegli il premio:</p>","0","9688","0","10000","1","false"
"1531","","html-button-response","67","237368","0.0-2.0-5.10","","<p>Scegli il premio:</p>","1","9922","0","10000","1","true"
"3096","","html-button-response","68","240465","0.0-2.0-0.11","","<p>Scegli il premio:</p>","0","5000","0","10000","12","false"
"1631","","html-button-response","69","242098","0.0-2.0-1.11","","<p>Scegli il premio:</p>","1","7500","0","10000","12","false"
"1416.000000000029","","html-button-response","70","243514","0.0-2.0-2.11","","<p>Scegli il premio:</p>","0","8750","0","10000","12","false"
"2087.000000000029","","html-button-response","71","245603","0.0-2.0-3.11","","<p>Scegli il premio:</p>","0","9375","0","10000","12","false"
"1978","","html-button-response","72","247582","0.0-2.0-4.11","","<p>Scegli il premio:</p>","0","9688","0","10000","12","false"
"1952","","html-button-response","73","249536","0.0-2.0-5.11","","<p>Scegli il premio:</p>","0","9844","1","10000","12","true"
"1182","","html-button-response","74","250719","0.0-3.0","","<p>Grazie per aver partecipato. Clicca sul tasto 'Fine' per uscire.</p>","0","","","","",""
"","","fullscreen","75","251721","0.0-4.0","true","","","","","","",""
