"rt","responses","trial_type","trial_index","time_elapsed","internal_node_id","success","stimulus","button_pressed","adj_rew","choice","del_rew","del_m","last_ask"
"12996.000000000002","{""Nome"":""CONTROL_TS"",""Cognome"":""2_A_POST""}","survey-text","0","13011","0.0-0.0","","","","","","","",""
"","","fullscreen","1","14791","0.0-1.0","true","","","","","","",""
"10217","","html-button-response","2","25011","0.0-2.0-0.0","","<p>Scegli il premio:</p>","0","250","0","500","1","false"
"2164","","html-button-response","3","27176","0.0-2.0-1.0","","<p>Scegli il premio:</p>","1","375","1","500","1","false"
"1329.9999999999964","","html-button-response","4","28507","0.0-2.0-2.0","","<p>Scegli il premio:</p>","1","313","0","500","1","false"
"1084","","html-button-response","5","29593","0.0-2.0-3.0","","<p>Scegli il premio:</p>","0","344","1","500","1","false"
"3946.9999999999964","","html-button-response","6","33540","0.0-2.0-4.0","","<p>Scegli il premio:</p>","0","329","0","500","1","false"
"1565","","html-button-response","7","35107","0.0-2.0-5.0","","<p>Scegli il premio:</p>","0","337","1","500","1","true"
"2000","","html-button-response","8","37108","0.0-2.0-0.1","","<p>Scegli il premio:</p>","1","5000","0","10000","1","false"
"1580","","html-button-response","9","38689","0.0-2.0-1.1","","<p>Scegli il premio:</p>","1","7500","1","10000","1","false"
"1102","","html-button-response","10","39793","0.0-2.0-2.1","","<p>Scegli il premio:</p>","0","6250","0","10000","1","false"
"1049","","html-button-response","11","40843","0.0-2.0-3.1","","<p>Scegli il premio:</p>","1","6875","1","10000","1","false"
"3082","","html-button-response","12","43927","0.0-2.0-4.1","","<p>Scegli il premio:</p>","0","6563","0","10000","1","false"
"1727","","html-button-response","13","45656","0.0-2.0-5.1","","<p>Scegli il premio:</p>","0","6719","1","10000","1","true"
"1803.0000000000073","","html-button-response","14","47460","0.0-2.0-0.2","","<p>Scegli il premio:</p>","1","250","1","500","60","false"
"1149","","html-button-response","15","48610","0.0-2.0-1.2","","<p>Scegli il premio:</p>","1","125","1","500","60","false"
"1495","","html-button-response","16","50106","0.0-2.0-2.2","","<p>Scegli il premio:</p>","1","63","0","500","60","false"
"1232","","html-button-response","17","51340","0.0-2.0-3.2","","<p>Scegli il premio:</p>","1","94","1","500","60","false"
"1153","","html-button-response","18","52494","0.0-2.0-4.2","","<p>Scegli il premio:</p>","0","79","1","500","60","false"
"2595","","html-button-response","19","55090","0.0-2.0-5.2","","<p>Scegli il premio:</p>","0","71","1","500","60","true"
"1964","","html-button-response","20","57056","0.0-2.0-0.3","","<p>Scegli il premio:</p>","0","250","1","500","12","false"
"1218","","html-button-response","21","58276","0.0-2.0-1.3","","<p>Scegli il premio:</p>","1","125","0","500","12","false"
"779","","html-button-response","22","59057","0.0-2.0-2.3","","<p>Scegli il premio:</p>","0","188","1","500","12","false"
"1499","","html-button-response","23","60558","0.0-2.0-3.3","","<p>Scegli il premio:</p>","1","157","0","500","12","false"
"982","","html-button-response","24","61541","0.0-2.0-4.3","","<p>Scegli il premio:</p>","0","173","1","500","12","false"
"963.0000000000073","","html-button-response","25","62506","0.0-2.0-5.3","","<p>Scegli il premio:</p>","0","165","1","500","12","true"
"2416","","html-button-response","26","64923","0.0-2.0-0.4","","<p>Scegli il premio:</p>","1","250","1","500","24","false"
"1536","","html-button-response","27","66460","0.0-2.0-1.4","","<p>Scegli il premio:</p>","0","125","0","500","24","false"
"5897","","html-button-response","28","72358","0.0-2.0-2.4","","<p>Scegli il premio:</p>","0","188","1","500","24","false"
"1548.9999999999854","","html-button-response","29","73910","0.0-2.0-3.4","","<p>Scegli il premio:</p>","0","157","1","500","24","false"
"5097","","html-button-response","30","79008","0.0-2.0-4.4","","<p>Scegli il premio:</p>","0","141","0","500","24","false"
"1649","","html-button-response","31","80659","0.0-2.0-5.4","","<p>Scegli il premio:</p>","0","149","1","500","24","true"
"1783","","html-button-response","32","82443","0.0-2.0-0.5","","<p>Scegli il premio:</p>","1","5000","0","10000","24","false"
"1165.0000000000146","","html-button-response","33","83610","0.0-2.0-1.5","","<p>Scegli il premio:</p>","1","7500","1","10000","24","false"
"1231","","html-button-response","34","84843","0.0-2.0-2.5","","<p>Scegli il premio:</p>","0","6250","0","10000","24","false"
"4783","","html-button-response","35","89627","0.0-2.0-3.5","","<p>Scegli il premio:</p>","0","6875","1","10000","24","false"
"1977","","html-button-response","36","91605","0.0-2.0-4.5","","<p>Scegli il premio:</p>","0","6563","1","10000","24","false"
"3635.0000000000146","","html-button-response","37","95240","0.0-2.0-5.5","","<p>Scegli il premio:</p>","0","6407","1","10000","24","true"
"2150","","html-button-response","38","97391","0.0-2.0-0.6","","<p>Scegli il premio:</p>","1","250","1","500","120","false"
"1400","","html-button-response","39","98793","0.0-2.0-1.6","","<p>Scegli il premio:</p>","0","125","1","500","120","false"
"1327","","html-button-response","40","100122","0.0-2.0-2.6","","<p>Scegli il premio:</p>","0","63","1","500","120","false"
"1518","","html-button-response","41","101642","0.0-2.0-3.6","","<p>Scegli il premio:</p>","1","32","1","500","120","false"
"1180","","html-button-response","42","102823","0.0-2.0-4.6","","<p>Scegli il premio:</p>","0","16","0","500","120","false"
"3464","","html-button-response","43","106288","0.0-2.0-5.6","","<p>Scegli il premio:</p>","0","24","1","500","120","true"
"2536","","html-button-response","44","108826","0.0-2.0-0.7","","<p>Scegli il premio:</p>","0","5000","0","10000","12","false"
"1694","","html-button-response","45","110522","0.0-2.0-1.7","","<p>Scegli il premio:</p>","0","7500","1","10000","12","false"
"1851","","html-button-response","46","112374","0.0-2.0-2.7","","<p>Scegli il premio:</p>","1","6250","1","10000","12","false"
"2868","","html-button-response","47","115243","0.0-2.0-3.7","","<p>Scegli il premio:</p>","1","5625","1","10000","12","false"
"1496","","html-button-response","48","116740","0.0-2.0-4.7","","<p>Scegli il premio:</p>","1","5313","1","10000","12","false"
"2316.9999999999854","","html-button-response","49","119059","0.0-2.0-5.7","","<p>Scegli il premio:</p>","0","5157","1","10000","12","true"
"2580","","html-button-response","50","121640","0.0-2.0-0.8","","<p>Scegli il premio:</p>","0","5000","0","10000","6","false"
"1067","","html-button-response","51","122709","0.0-2.0-1.8","","<p>Scegli il premio:</p>","1","7500","1","10000","6","false"
"829","","html-button-response","52","123538","0.0-2.0-2.8","","<p>Scegli il premio:</p>","1","6250","1","10000","6","false"
"2801","","html-button-response","53","126340","0.0-2.0-3.8","","<p>Scegli il premio:</p>","1","5625","1","10000","6","false"
"2564","","html-button-response","54","128905","0.0-2.0-4.8","","<p>Scegli il premio:</p>","1","5313","0","10000","6","false"
"1247.9999999999854","","html-button-response","55","130155","0.0-2.0-5.8","","<p>Scegli il premio:</p>","1","5547","0","10000","6","true"
"1986","","html-button-response","56","132143","0.0-2.0-0.9","","<p>Scegli il premio:</p>","0","5000","1","10000","60","false"
"1444.000000000029","","html-button-response","57","133588","0.0-2.0-1.9","","<p>Scegli il premio:</p>","0","2500","1","10000","60","false"
"2652","","html-button-response","58","136242","0.0-2.0-2.9","","<p>Scegli il premio:</p>","1","1250","0","10000","60","false"
"865","","html-button-response","59","137109","0.0-2.0-3.9","","<p>Scegli il premio:</p>","0","1875","1","10000","60","false"
"2078","","html-button-response","60","139188","0.0-2.0-4.9","","<p>Scegli il premio:</p>","1","1563","1","10000","60","false"
"3685.999999999971","","html-button-response","61","142874","0.0-2.0-5.9","","<p>Scegli il premio:</p>","0","1407","1","10000","60","true"
"1883","","html-button-response","62","144759","0.0-2.0-0.10","","<p>Scegli il premio:</p>","0","5000","1","10000","120","false"
"2011","","html-button-response","63","146772","0.0-2.0-1.10","","<p>Scegli il premio:</p>","0","2500","1","10000","120","false"
"2333","","html-button-response","64","149107","0.0-2.0-2.10","","<p>Scegli il premio:</p>","1","1250","1","10000","120","false"
"2917","","html-button-response","65","152025","0.0-2.0-3.10","","<p>Scegli il premio:</p>","0","625","0","10000","120","false"
"1699","","html-button-response","66","153726","0.0-2.0-4.10","","<p>Scegli il premio:</p>","1","938","1","10000","120","false"
"2127","","html-button-response","67","155855","0.0-2.0-5.10","","<p>Scegli il premio:</p>","0","782","1","10000","120","true"
"2499.000000000029","","html-button-response","68","158355","0.0-2.0-0.11","","<p>Scegli il premio:</p>","0","250","1","500","6","false"
"6132","","html-button-response","69","164488","0.0-2.0-1.11","","<p>Scegli il premio:</p>","0","125","1","500","6","false"
"1952","","html-button-response","70","166442","0.0-2.0-2.11","","<p>Scegli il premio:</p>","1","63","0","500","6","false"
"4543.999999999971","","html-button-response","71","170988","0.0-2.0-3.11","","<p>Scegli il premio:</p>","1","94","1","500","6","false"
"2748","","html-button-response","72","173738","0.0-2.0-4.11","","<p>Scegli il premio:</p>","1","79","0","500","6","false"
"2202","","html-button-response","73","175942","0.0-2.0-5.11","","<p>Scegli il premio:</p>","0","90.5","0","500","6","true"
"1028.999999999971","","html-button-response","74","176972","0.0-3.0","","<p>Grazie per aver partecipato. Clicca sul tasto 'Fine' per uscire.</p>","0","","","","",""
"","","fullscreen","75","177974","0.0-4.0","true","","","","","","",""
