subnum,block,type,correctresponse,trial,choice,x,y,stim,present,response,responded,corr,starttime,rt
CONTROL_TS_20B,0,practice,P,1,2,740,260,P,1,<rshift>,1,1,40182,635
CONTROL_TS_20B,0,practice,P,2,1,540,260,P,1,<rshift>,1,1,41182,326
CONTROL_TS_20B,0,practice,P,3,4,740,460,R,0,NONE,0,1,42179,953
CONTROL_TS_20B,0,practice,P,4,4,740,460,R,0,NONE,0,1,43180,952
CONTROL_TS_20B,0,practice,P,5,3,540,460,P,1,<rshift>,1,1,44181,378
CONTROL_TS_20B,0,practice,P,6,4,740,460,P,1,<rshift>,1,1,45187,437
CONTROL_TS_20B,0,practice,P,7,1,540,260,P,1,<rshift>,1,1,46187,383
CONTROL_TS_20B,0,practice,P,8,4,740,460,P,1,<rshift>,1,1,47172,319
CONTROL_TS_20B,0,practice,P,9,2,740,260,P,1,<rshift>,1,1,48182,473
CONTROL_TS_20B,0,practice,P,10,3,540,460,P,1,<rshift>,1,1,49188,303
CONTROL_TS_20B,1,test,P,1,4,740,460,P,1,<rshift>,1,1,53518,484
CONTROL_TS_20B,1,test,P,2,2,740,260,P,1,<rshift>,1,1,54519,310
CONTROL_TS_20B,1,test,P,3,2,740,260,P,1,<rshift>,1,1,55523,277
CONTROL_TS_20B,1,test,P,4,4,740,460,R,0,<rshift>,1,0,56524,261
CONTROL_TS_20B,1,test,P,5,2,740,260,P,1,<rshift>,1,1,57525,287
CONTROL_TS_20B,1,test,P,6,4,740,460,P,1,<rshift>,1,1,58523,263
CONTROL_TS_20B,1,test,P,7,2,740,260,R,0,<rshift>,1,0,59526,272
CONTROL_TS_20B,1,test,P,8,4,740,460,P,1,<rshift>,1,1,60526,387
CONTROL_TS_20B,1,test,P,9,2,740,260,P,1,<rshift>,1,1,61525,451
CONTROL_TS_20B,1,test,P,10,1,540,260,P,1,<rshift>,1,1,62525,538
CONTROL_TS_20B,1,test,P,11,1,540,260,P,1,<rshift>,1,1,63505,338
CONTROL_TS_20B,1,test,P,12,2,740,260,P,1,<rshift>,1,1,64523,303
CONTROL_TS_20B,1,test,P,13,4,740,460,P,1,<rshift>,1,1,65519,324
CONTROL_TS_20B,1,test,P,14,1,540,260,P,1,<rshift>,1,1,66521,436
CONTROL_TS_20B,1,test,P,15,2,740,260,P,1,<rshift>,1,1,67525,301
CONTROL_TS_20B,1,test,P,16,3,540,460,R,0,<rshift>,1,0,68521,387
CONTROL_TS_20B,1,test,P,17,3,540,460,P,1,<rshift>,1,1,69524,431
CONTROL_TS_20B,1,test,P,18,4,740,460,P,1,<rshift>,1,1,70520,314
CONTROL_TS_20B,1,test,P,19,1,540,260,P,1,<rshift>,1,1,71522,259
CONTROL_TS_20B,1,test,P,20,3,540,460,P,1,<rshift>,1,1,72526,352
CONTROL_TS_20B,1,test,P,21,4,740,460,P,1,<rshift>,1,1,73525,419
CONTROL_TS_20B,1,test,P,22,2,740,260,P,1,<rshift>,1,1,74520,359
CONTROL_TS_20B,1,test,P,23,4,740,460,P,1,<rshift>,1,1,75517,407
CONTROL_TS_20B,1,test,P,24,4,740,460,P,1,<rshift>,1,1,76523,343
CONTROL_TS_20B,1,test,P,25,3,540,460,P,1,<rshift>,1,1,77520,453
CONTROL_TS_20B,1,test,P,26,1,540,260,P,1,<rshift>,1,1,78518,293
CONTROL_TS_20B,1,test,P,27,1,540,260,P,1,<rshift>,1,1,79525,355
CONTROL_TS_20B,1,test,P,28,1,540,260,P,1,<rshift>,1,1,80525,282
CONTROL_TS_20B,1,test,P,29,2,740,260,R,0,<rshift>,1,0,81523,352
CONTROL_TS_20B,1,test,P,30,2,740,260,R,0,NONE,0,1,82518,953
CONTROL_TS_20B,1,test,P,31,4,740,460,R,0,<rshift>,1,0,83521,297
CONTROL_TS_20B,1,test,P,32,2,740,260,R,0,NONE,0,1,84524,952
CONTROL_TS_20B,1,test,P,33,2,740,260,P,1,<rshift>,1,1,85523,437
CONTROL_TS_20B,1,test,P,34,1,540,260,P,1,<rshift>,1,1,86518,338
CONTROL_TS_20B,1,test,P,35,1,540,260,P,1,<rshift>,1,1,87523,323
CONTROL_TS_20B,1,test,P,36,3,540,460,R,0,NONE,0,1,88520,953
CONTROL_TS_20B,1,test,P,37,1,540,260,P,1,<rshift>,1,1,89523,262
CONTROL_TS_20B,1,test,P,38,1,540,260,P,1,<rshift>,1,1,90514,232
CONTROL_TS_20B,1,test,P,39,4,740,460,P,1,<rshift>,1,1,91521,481
CONTROL_TS_20B,1,test,P,40,2,740,260,P,1,<rshift>,1,1,92519,327
CONTROL_TS_20B,1,test,P,41,4,740,460,P,1,<rshift>,1,1,93509,367
CONTROL_TS_20B,1,test,P,42,4,740,460,P,1,<rshift>,1,1,94508,336
CONTROL_TS_20B,1,test,P,43,3,540,460,P,1,<rshift>,1,1,95508,491
CONTROL_TS_20B,1,test,P,44,1,540,260,P,1,<rshift>,1,1,96521,309
CONTROL_TS_20B,1,test,P,45,2,740,260,P,1,<rshift>,1,1,97523,268
CONTROL_TS_20B,1,test,P,46,2,740,260,P,1,<rshift>,1,1,98523,308
CONTROL_TS_20B,1,test,P,47,3,540,460,P,1,<rshift>,1,1,99521,417
CONTROL_TS_20B,1,test,P,48,4,740,460,R,0,<rshift>,1,0,100523,333
CONTROL_TS_20B,1,test,P,49,2,740,260,R,0,<rshift>,1,0,101523,305
CONTROL_TS_20B,1,test,P,50,4,740,460,P,1,<rshift>,1,1,102523,494
CONTROL_TS_20B,1,test,P,51,3,540,460,R,0,<rshift>,1,0,103523,338
CONTROL_TS_20B,1,test,P,52,3,540,460,P,1,<rshift>,1,1,104520,348
CONTROL_TS_20B,1,test,P,53,2,740,260,P,1,<rshift>,1,1,105521,285
CONTROL_TS_20B,1,test,P,54,3,540,460,P,1,<rshift>,1,1,106523,295
CONTROL_TS_20B,1,test,P,55,1,540,260,P,1,<rshift>,1,1,107522,295
CONTROL_TS_20B,1,test,P,56,3,540,460,P,1,<rshift>,1,1,108526,418
CONTROL_TS_20B,1,test,P,57,3,540,460,P,1,<rshift>,1,1,109523,330
CONTROL_TS_20B,1,test,P,58,2,740,260,R,0,<rshift>,1,0,110522,323
CONTROL_TS_20B,1,test,P,59,2,740,260,P,1,<rshift>,1,1,111520,563
CONTROL_TS_20B,1,test,P,60,2,740,260,P,1,<rshift>,1,1,112509,423
CONTROL_TS_20B,1,test,P,61,2,740,260,P,1,<rshift>,1,1,113522,265
CONTROL_TS_20B,1,test,P,62,4,740,460,P,1,<rshift>,1,1,114522,704
CONTROL_TS_20B,1,test,P,63,1,540,260,P,1,<rshift>,1,1,115507,411
CONTROL_TS_20B,1,test,P,64,4,740,460,R,0,NONE,0,1,116521,953
CONTROL_TS_20B,1,test,P,65,4,740,460,P,1,<rshift>,1,1,117525,468
CONTROL_TS_20B,1,test,P,66,4,740,460,P,1,<rshift>,1,1,118520,363
CONTROL_TS_20B,1,test,P,67,3,540,460,P,1,<rshift>,1,1,119524,397
CONTROL_TS_20B,1,test,P,68,3,540,460,P,1,<rshift>,1,1,120518,306
CONTROL_TS_20B,1,test,P,69,2,740,260,P,1,<rshift>,1,1,121520,379
CONTROL_TS_20B,1,test,P,70,3,540,460,P,1,<rshift>,1,1,122521,359
CONTROL_TS_20B,1,test,P,71,1,540,260,R,0,NONE,0,1,123510,955
CONTROL_TS_20B,1,test,P,72,2,740,260,R,0,<rshift>,1,0,124522,305
CONTROL_TS_20B,1,test,P,73,4,740,460,R,0,<rshift>,1,0,125524,311
CONTROL_TS_20B,1,test,P,74,4,740,460,P,1,<rshift>,1,1,126524,445
CONTROL_TS_20B,1,test,P,75,1,540,260,P,1,<rshift>,1,1,127518,466
CONTROL_TS_20B,1,test,P,76,1,540,260,P,1,<rshift>,1,1,128519,328
CONTROL_TS_20B,1,test,P,77,4,740,460,P,1,<rshift>,1,1,129521,545
CONTROL_TS_20B,1,test,P,78,2,740,260,R,0,<rshift>,1,0,130521,321
CONTROL_TS_20B,1,test,P,79,2,740,260,R,0,NONE,0,1,131520,953
CONTROL_TS_20B,1,test,P,80,4,740,460,R,0,NONE,0,1,132523,953
CONTROL_TS_20B,1,test,P,81,1,540,260,P,1,<rshift>,1,1,133521,439
CONTROL_TS_20B,1,test,P,82,3,540,460,P,1,<rshift>,1,1,134516,412
CONTROL_TS_20B,1,test,P,83,3,540,460,P,1,<rshift>,1,1,135518,355
CONTROL_TS_20B,1,test,P,84,3,540,460,P,1,<rshift>,1,1,136525,305
CONTROL_TS_20B,1,test,P,85,4,740,460,P,1,<rshift>,1,1,137523,535
CONTROL_TS_20B,1,test,P,86,3,540,460,P,1,<rshift>,1,1,138522,422
CONTROL_TS_20B,1,test,P,87,2,740,260,P,1,<rshift>,1,1,139518,379
CONTROL_TS_20B,1,test,P,88,1,540,260,P,1,<rshift>,1,1,140510,374
CONTROL_TS_20B,1,test,P,89,1,540,260,P,1,<rshift>,1,1,141521,312
CONTROL_TS_20B,1,test,P,90,3,540,460,P,1,<rshift>,1,1,142520,279
CONTROL_TS_20B,1,test,P,91,4,740,460,P,1,<rshift>,1,1,143519,266
CONTROL_TS_20B,1,test,P,92,4,740,460,R,0,<rshift>,1,0,144520,305
CONTROL_TS_20B,1,test,P,93,3,540,460,P,1,<rshift>,1,1,145518,408
CONTROL_TS_20B,1,test,P,94,3,540,460,P,1,<rshift>,1,1,146522,449
CONTROL_TS_20B,1,test,P,95,3,540,460,R,0,NONE,0,1,147521,952
CONTROL_TS_20B,1,test,P,96,4,740,460,P,1,<rshift>,1,1,148519,453
CONTROL_TS_20B,1,test,P,97,2,740,260,P,1,<rshift>,1,1,149521,359
CONTROL_TS_20B,1,test,P,98,2,740,260,R,0,<rshift>,1,0,150521,308
CONTROL_TS_20B,1,test,P,99,3,540,460,R,0,NONE,0,1,151522,952
CONTROL_TS_20B,1,test,P,100,1,540,260,P,1,<rshift>,1,1,152520,451
CONTROL_TS_20B,1,test,P,101,1,540,260,R,0,NONE,0,1,153513,953
CONTROL_TS_20B,1,test,P,102,1,540,260,P,1,<rshift>,1,1,154522,374
CONTROL_TS_20B,1,test,P,103,3,540,460,P,1,<rshift>,1,1,155520,383
CONTROL_TS_20B,1,test,P,104,2,740,260,P,1,<rshift>,1,1,156520,592
CONTROL_TS_20B,1,test,P,105,3,540,460,P,1,<rshift>,1,1,157521,535
CONTROL_TS_20B,1,test,P,106,1,540,260,P,1,<rshift>,1,1,158522,548
CONTROL_TS_20B,1,test,P,107,1,540,260,P,1,<rshift>,1,1,159518,377
CONTROL_TS_20B,1,test,P,108,3,540,460,R,0,<rshift>,1,0,160514,379
CONTROL_TS_20B,1,test,P,109,4,740,460,P,1,<rshift>,1,1,161519,371
CONTROL_TS_20B,1,test,P,110,4,740,460,P,1,<rshift>,1,1,162524,536
CONTROL_TS_20B,1,test,P,111,3,540,460,P,1,<rshift>,1,1,163521,450
CONTROL_TS_20B,1,test,P,112,3,540,460,R,0,NONE,0,1,164522,954
CONTROL_TS_20B,1,test,P,113,4,740,460,R,0,NONE,0,1,165522,953
CONTROL_TS_20B,1,test,P,114,2,740,260,P,1,<rshift>,1,1,166523,364
CONTROL_TS_20B,1,test,P,115,2,740,260,R,0,NONE,0,1,167517,953
CONTROL_TS_20B,1,test,P,116,2,740,260,P,1,<rshift>,1,1,168523,387
CONTROL_TS_20B,1,test,P,117,4,740,460,R,0,NONE,0,1,169525,952
CONTROL_TS_20B,1,test,P,118,4,740,460,P,1,<rshift>,1,1,170525,401
CONTROL_TS_20B,1,test,P,119,2,740,260,P,1,<rshift>,1,1,171515,451
CONTROL_TS_20B,1,test,P,120,1,540,260,P,1,<rshift>,1,1,172519,564
CONTROL_TS_20B,1,test,P,121,2,740,260,P,1,<rshift>,1,1,173523,536
CONTROL_TS_20B,1,test,P,122,2,740,260,R,0,NONE,0,1,174519,953
CONTROL_TS_20B,1,test,P,123,3,540,460,P,1,<rshift>,1,1,175522,538
CONTROL_TS_20B,1,test,P,124,4,740,460,P,1,<rshift>,1,1,176522,452
CONTROL_TS_20B,1,test,P,125,2,740,260,P,1,<rshift>,1,1,177523,486
CONTROL_TS_20B,1,test,P,126,1,540,260,P,1,<rshift>,1,1,178521,434
CONTROL_TS_20B,1,test,P,127,4,740,460,R,0,<rshift>,1,0,179526,367
CONTROL_TS_20B,1,test,P,128,2,740,260,P,1,<rshift>,1,1,180518,304
CONTROL_TS_20B,1,test,P,129,4,740,460,P,1,<rshift>,1,1,181521,562
CONTROL_TS_20B,1,test,P,130,3,540,460,P,1,<rshift>,1,1,182521,537
CONTROL_TS_20B,1,test,P,131,3,540,460,P,1,<rshift>,1,1,183510,438
CONTROL_TS_20B,1,test,P,132,4,740,460,P,1,<rshift>,1,1,184521,404
CONTROL_TS_20B,1,test,P,133,4,740,460,P,1,<rshift>,1,1,185519,337
CONTROL_TS_20B,1,test,P,134,2,740,260,P,1,<rshift>,1,1,186521,387
CONTROL_TS_20B,1,test,P,135,4,740,460,P,1,<rshift>,1,1,187522,341
CONTROL_TS_20B,1,test,P,136,2,740,260,P,1,<rshift>,1,1,188518,304
CONTROL_TS_20B,1,test,P,137,4,740,460,P,1,<rshift>,1,1,189522,300
CONTROL_TS_20B,1,test,P,138,3,540,460,P,1,<rshift>,1,1,190524,365
CONTROL_TS_20B,1,test,P,139,1,540,260,P,1,<rshift>,1,1,191519,320
CONTROL_TS_20B,1,test,P,140,3,540,460,P,1,<rshift>,1,1,192520,352
CONTROL_TS_20B,1,test,P,141,1,540,260,P,1,<rshift>,1,1,193524,435
CONTROL_TS_20B,1,test,P,142,4,740,460,R,0,NONE,0,1,194522,953
CONTROL_TS_20B,1,test,P,143,1,540,260,P,1,<rshift>,1,1,195523,493
CONTROL_TS_20B,1,test,P,144,4,740,460,P,1,<rshift>,1,1,196523,496
CONTROL_TS_20B,1,test,P,145,4,740,460,P,1,<rshift>,1,1,197521,440
CONTROL_TS_20B,1,test,P,146,4,740,460,P,1,<rshift>,1,1,198523,317
CONTROL_TS_20B,1,test,P,147,4,740,460,P,1,<rshift>,1,1,199520,282
CONTROL_TS_20B,1,test,P,148,2,740,260,R,0,<rshift>,1,0,200508,395
CONTROL_TS_20B,1,test,P,149,1,540,260,R,0,<rshift>,1,0,201520,361
CONTROL_TS_20B,1,test,P,150,1,540,260,R,0,NONE,0,1,202521,953
CONTROL_TS_20B,1,test,P,151,2,740,260,P,1,<rshift>,1,1,203521,462
CONTROL_TS_20B,1,test,P,152,4,740,460,P,1,<rshift>,1,1,204520,539
CONTROL_TS_20B,1,test,P,153,1,540,260,P,1,<rshift>,1,1,205522,534
CONTROL_TS_20B,1,test,P,154,1,540,260,R,0,<rshift>,1,0,206525,409
CONTROL_TS_20B,1,test,P,155,3,540,460,P,1,<rshift>,1,1,207524,365
CONTROL_TS_20B,1,test,P,156,1,540,260,R,0,NONE,0,1,208520,953
CONTROL_TS_20B,1,test,P,157,1,540,260,P,1,<rshift>,1,1,209522,430
CONTROL_TS_20B,1,test,P,158,1,540,260,P,1,<rshift>,1,1,210521,581
CONTROL_TS_20B,1,test,P,159,3,540,460,P,1,<rshift>,1,1,211515,534
CONTROL_TS_20B,1,test,P,160,4,740,460,R,0,NONE,0,1,212525,953
CONTROL_TS_20B,1,test,P,161,3,540,460,P,1,<rshift>,1,1,213509,392
CONTROL_TS_20B,1,test,P,162,3,540,460,P,1,<rshift>,1,1,214517,353
CONTROL_TS_20B,1,test,P,163,1,540,260,P,1,<rshift>,1,1,215518,344
CONTROL_TS_20B,1,test,P,164,1,540,260,P,1,<rshift>,1,1,216521,323
CONTROL_TS_20B,1,test,P,165,1,540,260,P,1,<rshift>,1,1,217523,326
CONTROL_TS_20B,1,test,P,166,4,740,460,P,1,<rshift>,1,1,218524,559
CONTROL_TS_20B,1,test,P,167,1,540,260,P,1,<rshift>,1,1,219521,335
CONTROL_TS_20B,1,test,P,168,4,740,460,R,0,<rshift>,1,0,220522,260
CONTROL_TS_20B,1,test,P,169,3,540,460,P,1,<rshift>,1,1,221519,398
CONTROL_TS_20B,1,test,P,170,2,740,260,P,1,<rshift>,1,1,222521,534
CONTROL_TS_20B,1,test,P,171,2,740,260,P,1,<rshift>,1,1,223521,325
CONTROL_TS_20B,1,test,P,172,4,740,460,P,1,<rshift>,1,1,224520,550
CONTROL_TS_20B,1,test,P,173,4,740,460,P,1,<rshift>,1,1,225520,394
CONTROL_TS_20B,1,test,P,174,2,740,260,P,1,<rshift>,1,1,226520,316
CONTROL_TS_20B,1,test,P,175,1,540,260,P,1,<rshift>,1,1,227522,365
CONTROL_TS_20B,1,test,P,176,3,540,460,P,1,<rshift>,1,1,228520,294
CONTROL_TS_20B,1,test,P,177,4,740,460,R,0,NONE,0,1,229520,952
CONTROL_TS_20B,1,test,P,178,4,740,460,P,1,<rshift>,1,1,230520,537
CONTROL_TS_20B,1,test,P,179,4,740,460,P,1,<rshift>,1,1,231519,357
CONTROL_TS_20B,1,test,P,180,4,740,460,P,1,<rshift>,1,1,232521,240
CONTROL_TS_20B,1,test,P,181,4,740,460,P,1,<rshift>,1,1,233522,272
CONTROL_TS_20B,1,test,P,182,1,540,260,P,1,<rshift>,1,1,234510,379
CONTROL_TS_20B,1,test,P,183,2,740,260,P,1,<rshift>,1,1,235516,282
CONTROL_TS_20B,1,test,P,184,1,540,260,P,1,<rshift>,1,1,236524,385
CONTROL_TS_20B,1,test,P,185,2,740,260,P,1,<rshift>,1,1,237521,353
CONTROL_TS_20B,1,test,P,186,2,740,260,P,1,<rshift>,1,1,238525,303
CONTROL_TS_20B,1,test,P,187,4,740,460,P,1,<rshift>,1,1,239521,337
CONTROL_TS_20B,1,test,P,188,4,740,460,P,1,<rshift>,1,1,240520,307
CONTROL_TS_20B,1,test,P,189,3,540,460,P,1,<rshift>,1,1,241518,361
CONTROL_TS_20B,1,test,P,190,3,540,460,P,1,<rshift>,1,1,242522,273
CONTROL_TS_20B,1,test,P,191,3,540,460,P,1,<rshift>,1,1,243522,302
CONTROL_TS_20B,1,test,P,192,3,540,460,P,1,<rshift>,1,1,244523,307
CONTROL_TS_20B,1,test,P,193,2,740,260,P,1,<rshift>,1,1,245518,296
CONTROL_TS_20B,1,test,P,194,3,540,460,P,1,<rshift>,1,1,246521,255
CONTROL_TS_20B,1,test,P,195,2,740,260,R,0,<rshift>,1,0,247522,255
CONTROL_TS_20B,1,test,P,196,3,540,460,P,1,<rshift>,1,1,248521,341
CONTROL_TS_20B,1,test,P,197,3,540,460,R,0,<rshift>,1,0,249519,297
CONTROL_TS_20B,1,test,P,198,2,740,260,P,1,<rshift>,1,1,250522,560
CONTROL_TS_20B,1,test,P,199,2,740,260,P,1,<rshift>,1,1,251517,477
CONTROL_TS_20B,1,test,P,200,1,540,260,P,1,<rshift>,1,1,252522,358
CONTROL_TS_20B,1,test,P,201,4,740,460,P,1,<rshift>,1,1,253523,273
CONTROL_TS_20B,1,test,P,202,2,740,260,P,1,<rshift>,1,1,254521,265
CONTROL_TS_20B,1,test,P,203,4,740,460,P,1,<rshift>,1,1,255526,299
CONTROL_TS_20B,1,test,P,204,2,740,260,P,1,<rshift>,1,1,256521,268
CONTROL_TS_20B,1,test,P,205,3,540,460,R,0,<rshift>,1,0,257521,188
CONTROL_TS_20B,1,test,P,206,2,740,260,P,1,<rshift>,1,1,258518,224
CONTROL_TS_20B,1,test,P,207,4,740,460,P,1,<rshift>,1,1,259521,367
CONTROL_TS_20B,1,test,P,208,1,540,260,R,0,<rshift>,1,0,260505,286
CONTROL_TS_20B,1,test,P,209,4,740,460,P,1,<rshift>,1,1,261521,335
CONTROL_TS_20B,1,test,P,210,4,740,460,R,0,NONE,0,1,262521,952
CONTROL_TS_20B,1,test,P,211,4,740,460,P,1,<rshift>,1,1,263520,428
CONTROL_TS_20B,1,test,P,212,2,740,260,P,1,<rshift>,1,1,264523,360
CONTROL_TS_20B,1,test,P,213,4,740,460,P,1,<rshift>,1,1,265520,391
CONTROL_TS_20B,1,test,P,214,2,740,260,P,1,<rshift>,1,1,266523,259
CONTROL_TS_20B,1,test,P,215,2,740,260,R,0,<rshift>,1,0,267521,315
CONTROL_TS_20B,1,test,P,216,2,740,260,P,1,<rshift>,1,1,268522,536
CONTROL_TS_20B,1,test,P,217,2,740,260,P,1,<rshift>,1,1,269527,318
CONTROL_TS_20B,1,test,P,218,4,740,460,P,1,<rshift>,1,1,270524,535
CONTROL_TS_20B,1,test,P,219,1,540,260,P,1,<rshift>,1,1,271521,494
CONTROL_TS_20B,1,test,P,220,4,740,460,P,1,<rshift>,1,1,272518,479
CONTROL_TS_20B,1,test,P,221,1,540,260,P,1,<rshift>,1,1,273520,378
CONTROL_TS_20B,1,test,P,222,4,740,460,P,1,<rshift>,1,1,274520,315
CONTROL_TS_20B,1,test,P,223,1,540,260,P,1,<rshift>,1,1,275523,341
CONTROL_TS_20B,1,test,P,224,2,740,260,P,1,<rshift>,1,1,276517,446
CONTROL_TS_20B,1,test,P,225,2,740,260,P,1,<rshift>,1,1,277522,537
CONTROL_TS_20B,1,test,P,226,1,540,260,P,1,<rshift>,1,1,278519,499
CONTROL_TS_20B,1,test,P,227,2,740,260,R,0,NONE,0,1,279520,954
CONTROL_TS_20B,1,test,P,228,4,740,460,P,1,<rshift>,1,1,280525,454
CONTROL_TS_20B,1,test,P,229,3,540,460,P,1,<rshift>,1,1,281522,539
CONTROL_TS_20B,1,test,P,230,4,740,460,P,1,<rshift>,1,1,282526,534
CONTROL_TS_20B,1,test,P,231,3,540,460,R,0,NONE,0,1,283522,954
CONTROL_TS_20B,1,test,P,232,4,740,460,R,0,NONE,0,1,284523,955
CONTROL_TS_20B,1,test,P,233,4,740,460,P,1,<rshift>,1,1,285518,481
CONTROL_TS_20B,1,test,P,234,3,540,460,P,1,<rshift>,1,1,286519,384
CONTROL_TS_20B,1,test,P,235,3,540,460,P,1,<rshift>,1,1,287517,438
CONTROL_TS_20B,1,test,P,236,2,740,260,P,1,<rshift>,1,1,288519,422
CONTROL_TS_20B,1,test,P,237,1,540,260,P,1,<rshift>,1,1,289520,445
CONTROL_TS_20B,1,test,P,238,4,740,460,R,0,NONE,0,1,290520,954
CONTROL_TS_20B,1,test,P,239,3,540,460,R,0,<rshift>,1,0,291521,460
CONTROL_TS_20B,1,test,P,240,2,740,260,P,1,<rshift>,1,1,292509,347
CONTROL_TS_20B,1,test,P,241,1,540,260,P,1,<rshift>,1,1,293510,309
CONTROL_TS_20B,1,test,P,242,3,540,460,P,1,<rshift>,1,1,294521,554
CONTROL_TS_20B,1,test,P,243,2,740,260,P,1,<rshift>,1,1,295522,462
CONTROL_TS_20B,1,test,P,244,4,740,460,P,1,<rshift>,1,1,296520,412
CONTROL_TS_20B,1,test,P,245,1,540,260,P,1,<rshift>,1,1,297520,299
CONTROL_TS_20B,1,test,P,246,3,540,460,P,1,<rshift>,1,1,298519,301
CONTROL_TS_20B,1,test,P,247,2,740,260,P,1,<rshift>,1,1,299520,279
CONTROL_TS_20B,1,test,P,248,3,540,460,P,1,<rshift>,1,1,300530,265
CONTROL_TS_20B,1,test,P,249,4,740,460,P,1,<rshift>,1,1,301520,236
CONTROL_TS_20B,1,test,P,250,2,740,260,P,1,<rshift>,1,1,302527,241
CONTROL_TS_20B,1,test,P,251,3,540,460,P,1,<rshift>,1,1,303519,251
CONTROL_TS_20B,1,test,P,252,2,740,260,R,0,<rshift>,1,0,304524,279
CONTROL_TS_20B,1,test,P,253,1,540,260,P,1,<rshift>,1,1,305519,461
CONTROL_TS_20B,1,test,P,254,2,740,260,P,1,<rshift>,1,1,306522,404
CONTROL_TS_20B,1,test,P,255,1,540,260,R,0,<rshift>,1,0,307526,384
CONTROL_TS_20B,1,test,P,256,3,540,460,P,1,<rshift>,1,1,308526,535
CONTROL_TS_20B,1,test,P,257,2,740,260,P,1,<rshift>,1,1,309521,272
CONTROL_TS_20B,1,test,P,258,2,740,260,P,1,<rshift>,1,1,310521,318
CONTROL_TS_20B,1,test,P,259,1,540,260,R,0,NONE,0,1,311524,953
CONTROL_TS_20B,1,test,P,260,4,740,460,P,1,<rshift>,1,1,312524,474
CONTROL_TS_20B,1,test,P,261,4,740,460,P,1,<rshift>,1,1,313523,458
CONTROL_TS_20B,1,test,P,262,2,740,260,R,0,<rshift>,1,0,314522,404
CONTROL_TS_20B,1,test,P,263,3,540,460,P,1,<rshift>,1,1,315518,233
CONTROL_TS_20B,1,test,P,264,2,740,260,P,1,<rshift>,1,1,316519,24
CONTROL_TS_20B,1,test,P,265,2,740,260,P,1,<rshift>,1,1,317516,606
CONTROL_TS_20B,1,test,P,266,2,740,260,P,1,<rshift>,1,1,318521,452
CONTROL_TS_20B,1,test,P,267,3,540,460,P,1,<rshift>,1,1,319524,484
CONTROL_TS_20B,1,test,P,268,4,740,460,P,1,<rshift>,1,1,320511,352
CONTROL_TS_20B,1,test,P,269,2,740,260,P,1,<rshift>,1,1,321524,283
CONTROL_TS_20B,1,test,P,270,1,540,260,P,1,<rshift>,1,1,322522,425
CONTROL_TS_20B,1,test,P,271,1,540,260,R,0,NONE,0,1,323524,953
CONTROL_TS_20B,1,test,P,272,1,540,260,P,1,<rshift>,1,1,324521,496
CONTROL_TS_20B,1,test,P,273,2,740,260,P,1,<rshift>,1,1,325521,312
CONTROL_TS_20B,1,test,P,274,4,740,460,R,0,<rshift>,1,0,326522,300
CONTROL_TS_20B,1,test,P,275,3,540,460,P,1,<rshift>,1,1,327519,653
CONTROL_TS_20B,1,test,P,276,1,540,260,P,1,<rshift>,1,1,328522,375
CONTROL_TS_20B,1,test,P,277,4,740,460,P,1,<rshift>,1,1,329522,426
CONTROL_TS_20B,1,test,P,278,4,740,460,P,1,<rshift>,1,1,330523,403
CONTROL_TS_20B,1,test,P,279,1,540,260,P,1,<rshift>,1,1,331524,404
CONTROL_TS_20B,1,test,P,280,1,540,260,R,0,NONE,0,1,332525,952
CONTROL_TS_20B,1,test,P,281,4,740,460,P,1,<rshift>,1,1,333511,541
CONTROL_TS_20B,1,test,P,282,2,740,260,P,1,<rshift>,1,1,334519,352
CONTROL_TS_20B,1,test,P,283,2,740,260,R,0,<rshift>,1,0,335524,342
CONTROL_TS_20B,1,test,P,284,1,540,260,P,1,<rshift>,1,1,336520,367
CONTROL_TS_20B,1,test,P,285,1,540,260,P,1,<rshift>,1,1,337523,356
CONTROL_TS_20B,1,test,P,286,2,740,260,P,1,<rshift>,1,1,338522,535
CONTROL_TS_20B,1,test,P,287,2,740,260,P,1,<rshift>,1,1,339520,383
CONTROL_TS_20B,1,test,P,288,2,740,260,P,1,<rshift>,1,1,340520,296
CONTROL_TS_20B,1,test,P,289,2,740,260,R,0,<rshift>,1,0,341525,343
CONTROL_TS_20B,1,test,P,290,2,740,260,P,1,<rshift>,1,1,342521,178
CONTROL_TS_20B,1,test,P,291,2,740,260,P,1,<rshift>,1,1,343509,312
CONTROL_TS_20B,1,test,P,292,1,540,260,P,1,<rshift>,1,1,344521,418
CONTROL_TS_20B,1,test,P,293,2,740,260,P,1,<rshift>,1,1,345521,316
CONTROL_TS_20B,1,test,P,294,4,740,460,P,1,<rshift>,1,1,346519,567
CONTROL_TS_20B,1,test,P,295,4,740,460,P,1,<rshift>,1,1,347525,345
CONTROL_TS_20B,1,test,P,296,2,740,260,P,1,<rshift>,1,1,348520,425
CONTROL_TS_20B,1,test,P,297,2,740,260,P,1,<rshift>,1,1,349524,368
CONTROL_TS_20B,1,test,P,298,1,540,260,P,1,<rshift>,1,1,350522,409
CONTROL_TS_20B,1,test,P,299,3,540,460,P,1,<rshift>,1,1,351524,381
CONTROL_TS_20B,1,test,P,300,3,540,460,P,1,<rshift>,1,1,352520,311
CONTROL_TS_20B,2,practice,R,1,1,540,260,R,1,<rshift>,1,1,372380,449
CONTROL_TS_20B,2,practice,R,2,3,540,460,R,1,<rshift>,1,1,373385,369
CONTROL_TS_20B,2,practice,R,3,1,540,260,R,1,<rshift>,1,1,374384,278
CONTROL_TS_20B,2,practice,R,4,4,740,460,P,0,<rshift>,1,0,375382,329
CONTROL_TS_20B,2,practice,R,5,3,540,460,R,1,<rshift>,1,1,376844,472
CONTROL_TS_20B,2,practice,R,6,4,740,460,R,1,NONE,0,0,377375,954
CONTROL_TS_20B,2,practice,R,7,1,540,260,R,1,<rshift>,1,1,379427,419
CONTROL_TS_20B,2,practice,R,8,2,740,260,R,1,<rshift>,1,1,379912,480
CONTROL_TS_20B,2,practice,R,9,3,540,460,P,0,NONE,0,1,380432,953
CONTROL_TS_20B,2,practice,R,10,1,540,260,R,1,<rshift>,1,1,381421,355
CONTROL_TS_20B,3,test,R,1,2,740,260,R,1,<rshift>,1,1,385129,569
CONTROL_TS_20B,3,test,R,2,2,740,260,R,1,<rshift>,1,1,386137,322
CONTROL_TS_20B,3,test,R,3,1,540,260,P,0,<rshift>,1,0,387134,342
CONTROL_TS_20B,3,test,R,4,3,540,460,R,1,<rshift>,1,1,388142,679
CONTROL_TS_20B,3,test,R,5,2,740,260,R,1,<rshift>,1,1,389135,307
CONTROL_TS_20B,3,test,R,6,1,540,260,R,1,NONE,0,0,390135,953
CONTROL_TS_20B,3,test,R,7,4,740,460,R,1,<rshift>,1,1,391132,311
CONTROL_TS_20B,3,test,R,8,2,740,260,R,1,<rshift>,1,1,392126,363
CONTROL_TS_20B,3,test,R,9,4,740,460,R,1,<rshift>,1,1,393123,321
CONTROL_TS_20B,3,test,R,10,1,540,260,R,1,<rshift>,1,1,394120,254
CONTROL_TS_20B,3,test,R,11,2,740,260,P,0,<rshift>,1,0,395124,300
CONTROL_TS_20B,3,test,R,12,3,540,460,R,1,<rshift>,1,1,396136,534
CONTROL_TS_20B,3,test,R,13,1,540,260,R,1,<rshift>,1,1,397136,385
CONTROL_TS_20B,3,test,R,14,2,740,260,R,1,<rshift>,1,1,398139,288
CONTROL_TS_20B,3,test,R,15,4,740,460,R,1,<rshift>,1,1,399136,253
CONTROL_TS_20B,3,test,R,16,3,540,460,R,1,<rshift>,1,1,400134,271
CONTROL_TS_20B,3,test,R,17,4,740,460,R,1,<rshift>,1,1,401135,270
CONTROL_TS_20B,3,test,R,18,3,540,460,R,1,<rshift>,1,1,402134,296
CONTROL_TS_20B,3,test,R,19,2,740,260,R,1,<rshift>,1,1,403136,359
CONTROL_TS_20B,3,test,R,20,1,540,260,R,1,<rshift>,1,1,404134,318
CONTROL_TS_20B,3,test,R,21,1,540,260,R,1,<rshift>,1,1,405139,344
CONTROL_TS_20B,3,test,R,22,2,740,260,R,1,<rshift>,1,1,406137,351
CONTROL_TS_20B,3,test,R,23,1,540,260,P,0,<rshift>,1,0,407134,284
CONTROL_TS_20B,3,test,R,24,4,740,460,P,0,<rshift>,1,0,408134,245
CONTROL_TS_20B,3,test,R,25,1,540,260,R,1,<rshift>,1,1,409131,490
CONTROL_TS_20B,3,test,R,26,2,740,260,P,0,<rshift>,1,0,410134,343
CONTROL_TS_20B,3,test,R,27,3,540,460,R,1,<rshift>,1,1,411135,488
CONTROL_TS_20B,3,test,R,28,4,740,460,P,0,NONE,0,1,412134,954
CONTROL_TS_20B,3,test,R,29,3,540,460,R,1,<rshift>,1,1,413138,450
CONTROL_TS_20B,3,test,R,30,4,740,460,P,0,NONE,0,1,414134,953
CONTROL_TS_20B,3,test,R,31,3,540,460,R,1,<rshift>,1,1,415135,488
CONTROL_TS_20B,3,test,R,32,3,540,460,P,0,NONE,0,1,416136,953
CONTROL_TS_20B,3,test,R,33,3,540,460,R,1,<rshift>,1,1,417140,450
CONTROL_TS_20B,3,test,R,34,4,740,460,R,1,<rshift>,1,1,418137,530
CONTROL_TS_20B,3,test,R,35,1,540,260,P,0,NONE,0,1,419135,952
CONTROL_TS_20B,3,test,R,36,3,540,460,R,1,<rshift>,1,1,420136,369
CONTROL_TS_20B,3,test,R,37,4,740,460,R,1,<rshift>,1,1,421136,336
CONTROL_TS_20B,3,test,R,38,4,740,460,P,0,NONE,0,1,422133,952
CONTROL_TS_20B,3,test,R,39,4,740,460,R,1,<rshift>,1,1,423138,536
CONTROL_TS_20B,3,test,R,40,3,540,460,R,1,<rshift>,1,1,424133,459
CONTROL_TS_20B,3,test,R,41,3,540,460,R,1,<rshift>,1,1,425131,426
CONTROL_TS_20B,3,test,R,42,1,540,260,R,1,<rshift>,1,1,426133,486
CONTROL_TS_20B,3,test,R,43,2,740,260,R,1,<rshift>,1,1,427126,477
CONTROL_TS_20B,3,test,R,44,2,740,260,R,1,<rshift>,1,1,428137,350
CONTROL_TS_20B,3,test,R,45,2,740,260,R,1,<rshift>,1,1,429136,293
CONTROL_TS_20B,3,test,R,46,1,540,260,R,1,<rshift>,1,1,430137,556
CONTROL_TS_20B,3,test,R,47,4,740,460,R,1,<rshift>,1,1,431133,406
CONTROL_TS_20B,3,test,R,48,3,540,460,P,0,<rshift>,1,0,432139,371
CONTROL_TS_20B,3,test,R,49,1,540,260,R,1,<rshift>,1,1,433132,535
CONTROL_TS_20B,3,test,R,50,1,540,260,R,1,<rshift>,1,1,434133,533
CONTROL_TS_20B,3,test,R,51,4,740,460,P,0,NONE,0,1,435125,952
CONTROL_TS_20B,3,test,R,52,1,540,260,R,1,<rshift>,1,1,436130,409
CONTROL_TS_20B,3,test,R,53,4,740,460,R,1,<rshift>,1,1,437136,426
CONTROL_TS_20B,3,test,R,54,4,740,460,R,1,<rshift>,1,1,438133,431
CONTROL_TS_20B,3,test,R,55,3,540,460,P,0,NONE,0,1,439131,954
CONTROL_TS_20B,3,test,R,56,4,740,460,R,1,<rshift>,1,1,440135,410
CONTROL_TS_20B,3,test,R,57,4,740,460,R,1,<rshift>,1,1,441134,340
CONTROL_TS_20B,3,test,R,58,3,540,460,R,1,<rshift>,1,1,442137,581
CONTROL_TS_20B,3,test,R,59,2,740,260,P,0,NONE,0,1,443135,953
CONTROL_TS_20B,3,test,R,60,4,740,460,R,1,<rshift>,1,1,444134,761
CONTROL_TS_20B,3,test,R,61,3,540,460,R,1,<rshift>,1,1,445136,289
CONTROL_TS_20B,3,test,R,62,2,740,260,R,1,<rshift>,1,1,446137,295
CONTROL_TS_20B,3,test,R,63,2,740,260,R,1,<rshift>,1,1,447136,355
CONTROL_TS_20B,3,test,R,64,2,740,260,R,1,<rshift>,1,1,448136,307
CONTROL_TS_20B,3,test,R,65,2,740,260,R,1,<rshift>,1,1,449137,246
CONTROL_TS_20B,3,test,R,66,3,540,460,R,1,<rshift>,1,1,450134,356
CONTROL_TS_20B,3,test,R,67,2,740,260,R,1,<rshift>,1,1,451134,433
CONTROL_TS_20B,3,test,R,68,1,540,260,P,0,NONE,0,1,452135,953
CONTROL_TS_20B,3,test,R,69,1,540,260,R,1,<rshift>,1,1,453138,558
CONTROL_TS_20B,3,test,R,70,2,740,260,R,1,<rshift>,1,1,454134,347
CONTROL_TS_20B,3,test,R,71,2,740,260,R,1,<rshift>,1,1,455124,324
CONTROL_TS_20B,3,test,R,72,3,540,460,R,1,<rshift>,1,1,456136,580
CONTROL_TS_20B,3,test,R,73,2,740,260,P,0,<rshift>,1,0,457133,261
CONTROL_TS_20B,3,test,R,74,1,540,260,P,0,<rshift>,1,0,458137,324
CONTROL_TS_20B,3,test,R,75,2,740,260,R,1,<rshift>,1,1,459136,268
CONTROL_TS_20B,3,test,R,76,4,740,460,P,0,<rshift>,1,0,460136,360
CONTROL_TS_20B,3,test,R,77,1,540,260,P,0,NONE,0,1,461134,954
CONTROL_TS_20B,3,test,R,78,1,540,260,R,1,<rshift>,1,1,462134,347
CONTROL_TS_20B,3,test,R,79,1,540,260,P,0,<rshift>,1,0,463137,319
CONTROL_TS_20B,3,test,R,80,2,740,260,R,1,<rshift>,1,1,464135,338
CONTROL_TS_20B,3,test,R,81,4,740,460,P,0,NONE,0,1,465138,953
CONTROL_TS_20B,3,test,R,82,4,740,460,R,1,<rshift>,1,1,466134,569
CONTROL_TS_20B,3,test,R,83,2,740,260,P,0,NONE,0,1,467122,953
CONTROL_TS_20B,3,test,R,84,2,740,260,R,1,<rshift>,1,1,468132,291
CONTROL_TS_20B,3,test,R,85,1,540,260,R,1,NONE,0,0,469135,953
CONTROL_TS_20B,3,test,R,86,4,740,460,P,0,NONE,0,1,470135,953
CONTROL_TS_20B,3,test,R,87,2,740,260,R,1,<rshift>,1,1,471134,351
CONTROL_TS_20B,3,test,R,88,2,740,260,R,1,<rshift>,1,1,472138,352
CONTROL_TS_20B,3,test,R,89,4,740,460,R,1,<rshift>,1,1,473138,439
CONTROL_TS_20B,3,test,R,90,3,540,460,R,1,<rshift>,1,1,474128,413
CONTROL_TS_20B,3,test,R,91,3,540,460,R,1,<rshift>,1,1,475132,449
CONTROL_TS_20B,3,test,R,92,3,540,460,R,1,<rshift>,1,1,476123,389
CONTROL_TS_20B,3,test,R,93,3,540,460,R,1,<rshift>,1,1,477126,324
CONTROL_TS_20B,3,test,R,94,1,540,260,R,1,<rshift>,1,1,478129,392
CONTROL_TS_20B,3,test,R,95,1,540,260,P,0,<rshift>,1,0,479123,326
CONTROL_TS_20B,3,test,R,96,1,540,260,R,1,<rshift>,1,1,480134,297
CONTROL_TS_20B,3,test,R,97,3,540,460,R,1,<rshift>,1,1,481133,535
CONTROL_TS_20B,3,test,R,98,4,740,460,R,1,<rshift>,1,1,482134,460
CONTROL_TS_20B,3,test,R,99,4,740,460,R,1,<rshift>,1,1,483137,466
CONTROL_TS_20B,3,test,R,100,1,540,260,R,1,<rshift>,1,1,484134,913
CONTROL_TS_20B,3,test,R,101,1,540,260,R,1,NONE,0,0,485132,954
CONTROL_TS_20B,3,test,R,102,2,740,260,R,1,<rshift>,1,1,486132,365
CONTROL_TS_20B,3,test,R,103,1,540,260,R,1,<rshift>,1,1,487137,400
CONTROL_TS_20B,3,test,R,104,1,540,260,R,1,<rshift>,1,1,488134,329
CONTROL_TS_20B,3,test,R,105,1,540,260,P,0,<rshift>,1,0,489134,307
CONTROL_TS_20B,3,test,R,106,4,740,460,P,0,<rshift>,1,0,490137,355
CONTROL_TS_20B,3,test,R,107,4,740,460,R,1,<rshift>,1,1,491135,443
CONTROL_TS_20B,3,test,R,108,2,740,260,R,1,<rshift>,1,1,492131,540
CONTROL_TS_20B,3,test,R,109,2,740,260,R,1,<rshift>,1,1,493135,341
CONTROL_TS_20B,3,test,R,110,4,740,460,R,1,<rshift>,1,1,494136,532
CONTROL_TS_20B,3,test,R,111,1,540,260,R,1,<rshift>,1,1,495131,453
CONTROL_TS_20B,3,test,R,112,3,540,460,P,0,<rshift>,1,0,496133,474
CONTROL_TS_20B,3,test,R,113,1,540,260,R,1,<rshift>,1,1,497133,463
CONTROL_TS_20B,3,test,R,114,4,740,460,R,1,<rshift>,1,1,498133,535
CONTROL_TS_20B,3,test,R,115,1,540,260,R,1,<rshift>,1,1,499135,358
CONTROL_TS_20B,3,test,R,116,1,540,260,R,1,<rshift>,1,1,500135,307
CONTROL_TS_20B,3,test,R,117,2,740,260,R,1,<rshift>,1,1,501131,326
CONTROL_TS_20B,3,test,R,118,1,540,260,R,1,<rshift>,1,1,502135,288
CONTROL_TS_20B,3,test,R,119,3,540,460,P,0,<rshift>,1,0,503132,281
CONTROL_TS_20B,3,test,R,120,3,540,460,R,1,<rshift>,1,1,504122,293
CONTROL_TS_20B,3,test,R,121,1,540,260,R,1,<rshift>,1,1,505134,341
CONTROL_TS_20B,3,test,R,122,3,540,460,R,1,<rshift>,1,1,506137,339
CONTROL_TS_20B,3,test,R,123,4,740,460,R,1,<rshift>,1,1,507132,539
CONTROL_TS_20B,3,test,R,124,2,740,260,R,1,<rshift>,1,1,508134,355
CONTROL_TS_20B,3,test,R,125,1,540,260,R,1,<rshift>,1,1,509135,307
CONTROL_TS_20B,3,test,R,126,3,540,460,R,1,<rshift>,1,1,510125,709
CONTROL_TS_20B,3,test,R,127,4,740,460,P,0,<rshift>,1,0,511124,474
CONTROL_TS_20B,3,test,R,128,4,740,460,R,1,<rshift>,1,1,512122,414
CONTROL_TS_20B,3,test,R,129,3,540,460,R,1,<rshift>,1,1,513124,337
CONTROL_TS_20B,3,test,R,130,1,540,260,R,1,<rshift>,1,1,514122,305
CONTROL_TS_20B,3,test,R,131,2,740,260,R,1,<rshift>,1,1,515122,200
CONTROL_TS_20B,3,test,R,132,2,740,260,P,0,NONE,0,1,516122,951
CONTROL_TS_20B,3,test,R,133,1,540,260,R,1,<rshift>,1,1,517121,373
CONTROL_TS_20B,3,test,R,134,4,740,460,P,0,<rshift>,1,0,518131,294
CONTROL_TS_20B,3,test,R,135,2,740,260,P,0,NONE,0,1,519138,954
CONTROL_TS_20B,3,test,R,136,2,740,260,R,1,<rshift>,1,1,520131,495
CONTROL_TS_20B,3,test,R,137,1,540,260,R,1,<rshift>,1,1,521139,411
CONTROL_TS_20B,3,test,R,138,2,740,260,R,1,<rshift>,1,1,522135,296
CONTROL_TS_20B,3,test,R,139,1,540,260,R,1,<rshift>,1,1,523133,233
CONTROL_TS_20B,3,test,R,140,4,740,460,R,1,<rshift>,1,1,524137,401
CONTROL_TS_20B,3,test,R,141,3,540,460,R,1,<rshift>,1,1,525131,397
CONTROL_TS_20B,3,test,R,142,4,740,460,P,0,<rshift>,1,0,526136,318
CONTROL_TS_20B,3,test,R,143,1,540,260,R,1,<rshift>,1,1,527129,244
CONTROL_TS_20B,3,test,R,144,3,540,460,P,0,<rshift>,1,0,528133,300
CONTROL_TS_20B,3,test,R,145,1,540,260,R,1,<rshift>,1,1,529132,295
CONTROL_TS_20B,3,test,R,146,4,740,460,P,0,<rshift>,1,0,530140,237
CONTROL_TS_20B,3,test,R,147,1,540,260,R,1,<rshift>,1,1,531123,174
CONTROL_TS_20B,3,test,R,148,2,740,260,R,1,<rshift>,1,1,532137,2
CONTROL_TS_20B,3,test,R,149,2,740,260,R,1,<rshift>,1,1,533133,413
CONTROL_TS_20B,3,test,R,150,1,540,260,R,1,<rshift>,1,1,534128,440
CONTROL_TS_20B,3,test,R,151,2,740,260,R,1,<rshift>,1,1,535123,304
CONTROL_TS_20B,3,test,R,152,2,740,260,R,1,<rshift>,1,1,536129,281
CONTROL_TS_20B,3,test,R,153,1,540,260,P,0,NONE,0,1,537136,953
CONTROL_TS_20B,3,test,R,154,1,540,260,R,1,<rshift>,1,1,538135,399
CONTROL_TS_20B,3,test,R,155,3,540,460,R,1,<rshift>,1,1,539136,401
CONTROL_TS_20B,3,test,R,156,1,540,260,R,1,<rshift>,1,1,540121,322
CONTROL_TS_20B,3,test,R,157,1,540,260,R,1,<rshift>,1,1,541126,322
CONTROL_TS_20B,3,test,R,158,2,740,260,R,1,<rshift>,1,1,542133,343
CONTROL_TS_20B,3,test,R,159,3,540,460,R,1,<rshift>,1,1,543129,389
CONTROL_TS_20B,3,test,R,160,1,540,260,P,0,<rshift>,1,0,544125,383
CONTROL_TS_20B,3,test,R,161,1,540,260,P,0,NONE,0,1,545121,953
CONTROL_TS_20B,3,test,R,162,3,540,460,R,1,<rshift>,1,1,546136,363
CONTROL_TS_20B,3,test,R,163,2,740,260,P,0,<rshift>,1,0,547125,295
CONTROL_TS_20B,3,test,R,164,4,740,460,R,1,<rshift>,1,1,548120,410
CONTROL_TS_20B,3,test,R,165,4,740,460,R,1,<rshift>,1,1,549124,457
CONTROL_TS_20B,3,test,R,166,3,540,460,R,1,<rshift>,1,1,550124,404
CONTROL_TS_20B,3,test,R,167,1,540,260,R,1,<rshift>,1,1,551123,310
CONTROL_TS_20B,3,test,R,168,2,740,260,R,1,<rshift>,1,1,552123,357
CONTROL_TS_20B,3,test,R,169,4,740,460,R,1,<rshift>,1,1,553124,361
CONTROL_TS_20B,3,test,R,170,2,740,260,R,1,<rshift>,1,1,554129,391
CONTROL_TS_20B,3,test,R,171,1,540,260,R,1,<rshift>,1,1,555122,396
CONTROL_TS_20B,3,test,R,172,1,540,260,R,1,<rshift>,1,1,556122,413
CONTROL_TS_20B,3,test,R,173,2,740,260,R,1,<rshift>,1,1,557124,356
CONTROL_TS_20B,3,test,R,174,3,540,460,R,1,<rshift>,1,1,558124,301
CONTROL_TS_20B,3,test,R,175,4,740,460,R,1,<rshift>,1,1,559122,299
CONTROL_TS_20B,3,test,R,176,1,540,260,P,0,<rshift>,1,0,560121,321
CONTROL_TS_20B,3,test,R,177,4,740,460,R,1,<rshift>,1,1,561123,433
CONTROL_TS_20B,3,test,R,178,2,740,260,R,1,<rshift>,1,1,562124,479
CONTROL_TS_20B,3,test,R,179,2,740,260,R,1,<rshift>,1,1,563123,551
CONTROL_TS_20B,3,test,R,180,4,740,460,P,0,NONE,0,1,564122,953
CONTROL_TS_20B,3,test,R,181,2,740,260,R,1,<rshift>,1,1,565125,263
CONTROL_TS_20B,3,test,R,182,3,540,460,R,1,<rshift>,1,1,566129,526
CONTROL_TS_20B,3,test,R,183,3,540,460,R,1,<rshift>,1,1,567133,400
CONTROL_TS_20B,3,test,R,184,4,740,460,R,1,<rshift>,1,1,568129,378
CONTROL_TS_20B,3,test,R,185,2,740,260,R,1,<rshift>,1,1,569135,535
CONTROL_TS_20B,3,test,R,186,3,540,460,R,1,<rshift>,1,1,570121,460
CONTROL_TS_20B,3,test,R,187,2,740,260,R,1,<rshift>,1,1,571123,309
CONTROL_TS_20B,3,test,R,188,3,540,460,R,1,<rshift>,1,1,572128,428
CONTROL_TS_20B,3,test,R,189,1,540,260,R,1,<rshift>,1,1,573123,500
CONTROL_TS_20B,3,test,R,190,1,540,260,R,1,<rshift>,1,1,574133,391
CONTROL_TS_20B,3,test,R,191,2,740,260,P,0,NONE,0,1,575124,952
CONTROL_TS_20B,3,test,R,192,1,540,260,R,1,<rshift>,1,1,576122,363
CONTROL_TS_20B,3,test,R,193,1,540,260,R,1,<rshift>,1,1,577125,381
CONTROL_TS_20B,3,test,R,194,3,540,460,R,1,<rshift>,1,1,578123,397
CONTROL_TS_20B,3,test,R,195,2,740,260,R,1,<rshift>,1,1,579128,330
CONTROL_TS_20B,3,test,R,196,4,740,460,R,1,<rshift>,1,1,580125,303
CONTROL_TS_20B,3,test,R,197,2,740,260,R,1,<rshift>,1,1,581125,276
CONTROL_TS_20B,3,test,R,198,1,540,260,R,1,<rshift>,1,1,582125,277
CONTROL_TS_20B,3,test,R,199,2,740,260,R,1,<rshift>,1,1,583127,436
CONTROL_TS_20B,3,test,R,200,4,740,460,R,1,<rshift>,1,1,584131,479
CONTROL_TS_20B,3,test,R,201,1,540,260,R,1,<rshift>,1,1,585124,387
CONTROL_TS_20B,3,test,R,202,2,740,260,R,1,<rshift>,1,1,586131,385
CONTROL_TS_20B,3,test,R,203,3,540,460,R,1,<rshift>,1,1,587133,429
CONTROL_TS_20B,3,test,R,204,2,740,260,R,1,<rshift>,1,1,588134,393
CONTROL_TS_20B,3,test,R,205,2,740,260,R,1,<rshift>,1,1,589134,354
CONTROL_TS_20B,3,test,R,206,3,540,460,R,1,<rshift>,1,1,590130,404
CONTROL_TS_20B,3,test,R,207,4,740,460,R,1,<rshift>,1,1,591128,323
CONTROL_TS_20B,3,test,R,208,3,540,460,R,1,<rshift>,1,1,592137,540
CONTROL_TS_20B,3,test,R,209,4,740,460,R,1,<rshift>,1,1,593137,336
CONTROL_TS_20B,3,test,R,210,1,540,260,R,1,<rshift>,1,1,594127,432
CONTROL_TS_20B,3,test,R,211,3,540,460,R,1,<rshift>,1,1,595133,427
CONTROL_TS_20B,3,test,R,212,4,740,460,R,1,<rshift>,1,1,596133,413
CONTROL_TS_20B,3,test,R,213,1,540,260,R,1,<rshift>,1,1,597129,385
CONTROL_TS_20B,3,test,R,214,3,540,460,R,1,<rshift>,1,1,598133,399
CONTROL_TS_20B,3,test,R,215,2,740,260,R,1,<rshift>,1,1,599134,315
CONTROL_TS_20B,3,test,R,216,4,740,460,R,1,<rshift>,1,1,600130,340
CONTROL_TS_20B,3,test,R,217,4,740,460,R,1,<rshift>,1,1,601134,309
CONTROL_TS_20B,3,test,R,218,3,540,460,R,1,<rshift>,1,1,602139,331
CONTROL_TS_20B,3,test,R,219,3,540,460,P,0,<rshift>,1,0,603136,318
CONTROL_TS_20B,3,test,R,220,4,740,460,R,1,<rshift>,1,1,604133,406
CONTROL_TS_20B,3,test,R,221,3,540,460,P,0,NONE,0,1,605136,953
CONTROL_TS_20B,3,test,R,222,3,540,460,R,1,<rshift>,1,1,606133,534
CONTROL_TS_20B,3,test,R,223,4,740,460,R,1,<rshift>,1,1,607136,307
CONTROL_TS_20B,3,test,R,224,3,540,460,R,1,<rshift>,1,1,608133,363
CONTROL_TS_20B,3,test,R,225,4,740,460,R,1,<rshift>,1,1,609138,336
CONTROL_TS_20B,3,test,R,226,3,540,460,R,1,<rshift>,1,1,610135,298
CONTROL_TS_20B,3,test,R,227,3,540,460,P,0,NONE,0,1,611133,952
CONTROL_TS_20B,3,test,R,228,2,740,260,R,1,<rshift>,1,1,612136,430
CONTROL_TS_20B,3,test,R,229,3,540,460,P,0,NONE,0,1,613134,953
CONTROL_TS_20B,3,test,R,230,1,540,260,R,1,<rshift>,1,1,614135,395
CONTROL_TS_20B,3,test,R,231,1,540,260,R,1,<rshift>,1,1,615133,370
CONTROL_TS_20B,3,test,R,232,1,540,260,R,1,<rshift>,1,1,616137,292
CONTROL_TS_20B,3,test,R,233,1,540,260,R,1,<rshift>,1,1,617130,279
CONTROL_TS_20B,3,test,R,234,1,540,260,R,1,<rshift>,1,1,618135,459
CONTROL_TS_20B,3,test,R,235,1,540,260,R,1,<rshift>,1,1,619138,375
CONTROL_TS_20B,3,test,R,236,2,740,260,R,1,<rshift>,1,1,620137,436
CONTROL_TS_20B,3,test,R,237,4,740,460,R,1,<rshift>,1,1,621136,429
CONTROL_TS_20B,3,test,R,238,3,540,460,R,1,<rshift>,1,1,622132,440
CONTROL_TS_20B,3,test,R,239,3,540,460,R,1,<rshift>,1,1,623133,498
CONTROL_TS_20B,3,test,R,240,1,540,260,R,1,<rshift>,1,1,624135,531
CONTROL_TS_20B,3,test,R,241,3,540,460,R,1,<rshift>,1,1,625135,566
CONTROL_TS_20B,3,test,R,242,1,540,260,P,0,<rshift>,1,0,626134,450
CONTROL_TS_20B,3,test,R,243,1,540,260,P,0,NONE,0,1,627135,954
CONTROL_TS_20B,3,test,R,244,2,740,260,R,1,<rshift>,1,1,628134,471
CONTROL_TS_20B,3,test,R,245,3,540,460,R,1,<rshift>,1,1,629128,333
CONTROL_TS_20B,3,test,R,246,1,540,260,P,0,<rshift>,1,0,630134,327
CONTROL_TS_20B,3,test,R,247,3,540,460,R,1,<rshift>,1,1,631133,231
CONTROL_TS_20B,3,test,R,248,3,540,460,R,1,<rshift>,1,1,632137,255
CONTROL_TS_20B,3,test,R,249,1,540,260,R,1,<rshift>,1,1,633135,256
CONTROL_TS_20B,3,test,R,250,3,540,460,R,1,<rshift>,1,1,634134,296
CONTROL_TS_20B,3,test,R,251,2,740,260,R,1,<rshift>,1,1,635134,499
CONTROL_TS_20B,3,test,R,252,1,540,260,R,1,<rshift>,1,1,636130,335
CONTROL_TS_20B,3,test,R,253,2,740,260,P,0,NONE,0,1,637134,952
CONTROL_TS_20B,3,test,R,254,2,740,260,R,1,<rshift>,1,1,638137,761
CONTROL_TS_20B,3,test,R,255,2,740,260,R,1,<rshift>,1,1,639134,322
CONTROL_TS_20B,3,test,R,256,4,740,460,R,1,<rshift>,1,1,640131,354
CONTROL_TS_20B,3,test,R,257,1,540,260,R,1,<rshift>,1,1,641132,320
CONTROL_TS_20B,3,test,R,258,1,540,260,R,1,<rshift>,1,1,642134,267
CONTROL_TS_20B,3,test,R,259,4,740,460,R,1,<rshift>,1,1,643131,465
CONTROL_TS_20B,3,test,R,260,1,540,260,R,1,<rshift>,1,1,644132,366
CONTROL_TS_20B,3,test,R,261,4,740,460,R,1,<rshift>,1,1,645135,304
CONTROL_TS_20B,3,test,R,262,3,540,460,R,1,<rshift>,1,1,646134,293
CONTROL_TS_20B,3,test,R,263,1,540,260,R,1,<rshift>,1,1,647131,305
CONTROL_TS_20B,3,test,R,264,4,740,460,R,1,<rshift>,1,1,648132,309
CONTROL_TS_20B,3,test,R,265,2,740,260,P,0,<rshift>,1,0,649135,242
CONTROL_TS_20B,3,test,R,266,4,740,460,R,1,<rshift>,1,1,650132,358
CONTROL_TS_20B,3,test,R,267,1,540,260,R,1,<rshift>,1,1,651133,285
CONTROL_TS_20B,3,test,R,268,2,740,260,R,1,<rshift>,1,1,652139,276
CONTROL_TS_20B,3,test,R,269,3,540,460,P,0,<rshift>,1,0,653134,228
CONTROL_TS_20B,3,test,R,270,2,740,260,P,0,<rshift>,1,0,654137,67
CONTROL_TS_20B,3,test,R,271,2,740,260,R,1,<rshift>,1,1,655136,24
CONTROL_TS_20B,3,test,R,272,1,540,260,R,1,<rshift>,1,1,656138,352
CONTROL_TS_20B,3,test,R,273,4,740,460,R,1,<rshift>,1,1,657134,462
CONTROL_TS_20B,3,test,R,274,3,540,460,R,1,<rshift>,1,1,658133,268
CONTROL_TS_20B,3,test,R,275,1,540,260,R,1,<rshift>,1,1,659134,417
CONTROL_TS_20B,3,test,R,276,1,540,260,R,1,<rshift>,1,1,660133,357
CONTROL_TS_20B,3,test,R,277,4,740,460,R,1,<rshift>,1,1,661137,262
CONTROL_TS_20B,3,test,R,278,1,540,260,R,1,<rshift>,1,1,662136,140
CONTROL_TS_20B,3,test,R,279,1,540,260,R,1,<rshift>,1,1,663136,408
CONTROL_TS_20B,3,test,R,280,1,540,260,R,1,<rshift>,1,1,664131,299
CONTROL_TS_20B,3,test,R,281,3,540,460,R,1,<rshift>,1,1,665134,118
CONTROL_TS_20B,3,test,R,282,1,540,260,R,1,<rshift>,1,1,666135,308
CONTROL_TS_20B,3,test,R,283,1,540,260,R,1,<rshift>,1,1,667136,272
CONTROL_TS_20B,3,test,R,284,2,740,260,R,1,<rshift>,1,1,668135,177
CONTROL_TS_20B,3,test,R,285,3,540,460,P,0,<rshift>,1,0,669130,305
CONTROL_TS_20B,3,test,R,286,1,540,260,R,1,<rshift>,1,1,670137,384
CONTROL_TS_20B,3,test,R,287,4,740,460,R,1,<rshift>,1,1,671137,308
CONTROL_TS_20B,3,test,R,288,3,540,460,R,1,<rshift>,1,1,672132,294
CONTROL_TS_20B,3,test,R,289,4,740,460,R,1,<rshift>,1,1,673132,324
CONTROL_TS_20B,3,test,R,290,3,540,460,P,0,<rshift>,1,0,674132,400
CONTROL_TS_20B,3,test,R,291,3,540,460,P,0,<rshift>,1,0,675133,425
CONTROL_TS_20B,3,test,R,292,2,740,260,P,0,NONE,0,1,676138,953
CONTROL_TS_20B,3,test,R,293,4,740,460,P,0,NONE,0,1,677136,952
CONTROL_TS_20B,3,test,R,294,3,540,460,R,1,<rshift>,1,1,678132,543
CONTROL_TS_20B,3,test,R,295,3,540,460,R,1,<rshift>,1,1,679133,358
CONTROL_TS_20B,3,test,R,296,2,740,260,P,0,NONE,0,1,680135,952
CONTROL_TS_20B,3,test,R,297,3,540,460,R,1,<rshift>,1,1,681137,360
CONTROL_TS_20B,3,test,R,298,1,540,260,R,1,<rshift>,1,1,682135,489
CONTROL_TS_20B,3,test,R,299,4,740,460,R,1,<rshift>,1,1,683136,532
CONTROL_TS_20B,3,test,R,300,2,740,260,P,0,NONE,0,1,684134,953
