subnum,block,type,correctresponse,trial,choice,x,y,stim,present,response,responded,corr,starttime,rt
control_ts_30_A1,0,practice,P,1,2,868,332,P,1,NONE,0,0,42224,951
control_ts_30_A1,0,practice,P,2,3,668,532,R,0,NONE,0,1,44256,953
control_ts_30_A1,0,practice,P,3,3,668,532,P,1,NONE,0,0,45240,953
control_ts_30_A1,0,practice,P,4,2,868,332,P,1,NONE,0,0,47250,951
control_ts_30_A1,0,practice,P,5,2,868,332,R,0,NONE,0,1,49257,952
control_ts_30_A1,0,practice,P,6,2,868,332,P,1,<rshift>,1,1,50224,456
control_ts_30_A1,0,practice,P,7,3,668,532,P,1,NONE,0,0,50707,951
control_ts_30_A1,0,practice,P,8,4,868,532,P,1,<rshift>,1,1,52707,405
control_ts_30_A1,0,practice,P,9,3,668,532,P,1,<rshift>,1,1,53158,682
control_ts_30_A1,0,practice,P,10,4,868,532,P,1,<rshift>,1,1,53868,526
control_ts_30_A1,1,test,P,1,4,868,532,R,0,NONE,0,1,60090,952
control_ts_30_A1,1,test,P,2,4,868,532,R,0,NONE,0,1,61103,954
control_ts_30_A1,1,test,P,3,2,868,332,P,1,<rshift>,1,1,62103,370
control_ts_30_A1,1,test,P,4,4,868,532,P,1,<rshift>,1,1,63100,539
control_ts_30_A1,1,test,P,5,2,868,332,P,1,<rshift>,1,1,64093,386
control_ts_30_A1,1,test,P,6,3,668,532,P,1,<rshift>,1,1,65094,340
control_ts_30_A1,1,test,P,7,3,668,532,P,1,<rshift>,1,1,66104,366
control_ts_30_A1,1,test,P,8,1,668,332,R,0,<rshift>,1,0,67108,359
control_ts_30_A1,1,test,P,9,1,668,332,P,1,<rshift>,1,1,68089,450
control_ts_30_A1,1,test,P,10,1,668,332,P,1,<rshift>,1,1,69098,405
control_ts_30_A1,1,test,P,11,2,868,332,P,1,<rshift>,1,1,70102,451
control_ts_30_A1,1,test,P,12,4,868,532,P,1,<rshift>,1,1,71099,371
control_ts_30_A1,1,test,P,13,3,668,532,P,1,<rshift>,1,1,72090,399
control_ts_30_A1,1,test,P,14,1,668,332,P,1,<rshift>,1,1,73087,375
control_ts_30_A1,1,test,P,15,1,668,332,R,0,<rshift>,1,0,74087,356
control_ts_30_A1,1,test,P,16,2,868,332,P,1,<rshift>,1,1,75087,296
control_ts_30_A1,1,test,P,17,4,868,532,P,1,<rshift>,1,1,76090,423
control_ts_30_A1,1,test,P,18,2,868,332,P,1,<rshift>,1,1,77089,565
control_ts_30_A1,1,test,P,19,3,668,532,P,1,<rshift>,1,1,78087,547
control_ts_30_A1,1,test,P,20,4,868,532,P,1,<rshift>,1,1,79098,461
control_ts_30_A1,1,test,P,21,4,868,532,P,1,<rshift>,1,1,80088,462
control_ts_30_A1,1,test,P,22,1,668,332,P,1,<rshift>,1,1,81103,338
control_ts_30_A1,1,test,P,23,4,868,532,R,0,<rshift>,1,0,82089,347
control_ts_30_A1,1,test,P,24,3,668,532,P,1,<rshift>,1,1,83106,443
control_ts_30_A1,1,test,P,25,2,868,332,P,1,<rshift>,1,1,84099,406
control_ts_30_A1,1,test,P,26,1,668,332,P,1,<rshift>,1,1,85102,294
control_ts_30_A1,1,test,P,27,1,668,332,R,0,<rshift>,1,0,86094,147
control_ts_30_A1,1,test,P,28,3,668,532,P,1,<rshift>,1,1,87099,300
control_ts_30_A1,1,test,P,29,1,668,332,R,0,NONE,0,1,88098,951
control_ts_30_A1,1,test,P,30,3,668,532,P,1,<rshift>,1,1,89101,341
control_ts_30_A1,1,test,P,31,3,668,532,P,1,<rshift>,1,1,90100,445
control_ts_30_A1,1,test,P,32,2,868,332,P,1,<rshift>,1,1,91087,382
control_ts_30_A1,1,test,P,33,1,668,332,R,0,NONE,0,1,92088,951
control_ts_30_A1,1,test,P,34,2,868,332,P,1,<rshift>,1,1,93105,368
control_ts_30_A1,1,test,P,35,4,868,532,R,0,NONE,0,1,94103,951
control_ts_30_A1,1,test,P,36,4,868,532,P,1,<rshift>,1,1,95103,379
control_ts_30_A1,1,test,P,37,1,668,332,R,0,NONE,0,1,96087,953
control_ts_30_A1,1,test,P,38,4,868,532,R,0,<rshift>,1,0,97087,362
control_ts_30_A1,1,test,P,39,3,668,532,P,1,<rshift>,1,1,98094,314
control_ts_30_A1,1,test,P,40,4,868,532,R,0,NONE,0,1,99105,951
control_ts_30_A1,1,test,P,41,2,868,332,P,1,<rshift>,1,1,100104,498
control_ts_30_A1,1,test,P,42,1,668,332,P,1,<rshift>,1,1,101102,396
control_ts_30_A1,1,test,P,43,4,868,532,P,1,<rshift>,1,1,102106,457
control_ts_30_A1,1,test,P,44,4,868,532,P,1,<rshift>,1,1,103103,421
control_ts_30_A1,1,test,P,45,2,868,332,R,0,NONE,0,1,104092,952
control_ts_30_A1,1,test,P,46,4,868,532,P,1,<rshift>,1,1,105102,405
control_ts_30_A1,1,test,P,47,4,868,532,P,1,<rshift>,1,1,106103,352
control_ts_30_A1,1,test,P,48,2,868,332,P,1,<rshift>,1,1,107103,342
control_ts_30_A1,1,test,P,49,2,868,332,P,1,<rshift>,1,1,108104,322
control_ts_30_A1,1,test,P,50,4,868,532,P,1,<rshift>,1,1,109104,387
control_ts_30_A1,1,test,P,51,1,668,332,R,0,<rshift>,1,0,110102,353
control_ts_30_A1,1,test,P,52,2,868,332,P,1,<rshift>,1,1,111088,305
control_ts_30_A1,1,test,P,53,1,668,332,P,1,<rshift>,1,1,112103,392
control_ts_30_A1,1,test,P,54,4,868,532,P,1,<rshift>,1,1,113103,434
control_ts_30_A1,1,test,P,55,1,668,332,R,0,NONE,0,1,114102,951
control_ts_30_A1,1,test,P,56,3,668,532,P,1,<rshift>,1,1,115087,390
control_ts_30_A1,1,test,P,57,2,868,332,P,1,<rshift>,1,1,116088,323
control_ts_30_A1,1,test,P,58,2,868,332,R,0,NONE,0,1,117090,951
control_ts_30_A1,1,test,P,59,4,868,532,R,0,<rshift>,1,0,118092,320
control_ts_30_A1,1,test,P,60,2,868,332,P,1,<rshift>,1,1,119102,405
control_ts_30_A1,1,test,P,61,3,668,532,P,1,<rshift>,1,1,120103,446
control_ts_30_A1,1,test,P,62,1,668,332,P,1,<rshift>,1,1,121104,529
control_ts_30_A1,1,test,P,63,4,868,532,P,1,<rshift>,1,1,122088,462
control_ts_30_A1,1,test,P,64,4,868,532,P,1,<rshift>,1,1,123104,421
control_ts_30_A1,1,test,P,65,3,668,532,P,1,<rshift>,1,1,124103,355
control_ts_30_A1,1,test,P,66,1,668,332,P,1,<rshift>,1,1,125090,351
control_ts_30_A1,1,test,P,67,1,668,332,P,1,<rshift>,1,1,126103,394
control_ts_30_A1,1,test,P,68,2,868,332,P,1,<rshift>,1,1,127092,351
control_ts_30_A1,1,test,P,69,1,668,332,R,0,NONE,0,1,128087,952
control_ts_30_A1,1,test,P,70,3,668,532,P,1,<rshift>,1,1,129087,481
control_ts_30_A1,1,test,P,71,4,868,532,P,1,<rshift>,1,1,130105,361
control_ts_30_A1,1,test,P,72,2,868,332,R,0,<rshift>,1,0,131090,315
control_ts_30_A1,1,test,P,73,3,668,532,R,0,<rshift>,1,0,132103,331
control_ts_30_A1,1,test,P,74,1,668,332,R,0,NONE,0,1,133088,952
control_ts_30_A1,1,test,P,75,2,868,332,P,1,<rshift>,1,1,134101,431
control_ts_30_A1,1,test,P,76,4,868,532,P,1,<rshift>,1,1,135087,474
control_ts_30_A1,1,test,P,77,1,668,332,R,0,NONE,0,1,136104,952
control_ts_30_A1,1,test,P,78,3,668,532,R,0,NONE,0,1,137104,951
control_ts_30_A1,1,test,P,79,1,668,332,R,0,NONE,0,1,138106,953
control_ts_30_A1,1,test,P,80,4,868,532,P,1,<rshift>,1,1,139104,438
control_ts_30_A1,1,test,P,81,1,668,332,P,1,<rshift>,1,1,140098,457
control_ts_30_A1,1,test,P,82,3,668,532,P,1,<rshift>,1,1,141104,491
control_ts_30_A1,1,test,P,83,3,668,532,P,1,<rshift>,1,1,142103,410
control_ts_30_A1,1,test,P,84,2,868,332,P,1,<rshift>,1,1,143102,371
control_ts_30_A1,1,test,P,85,3,668,532,P,1,<rshift>,1,1,144095,461
control_ts_30_A1,1,test,P,86,2,868,332,P,1,<rshift>,1,1,145088,352
control_ts_30_A1,1,test,P,87,3,668,532,P,1,<rshift>,1,1,146089,344
control_ts_30_A1,1,test,P,88,1,668,332,P,1,<rshift>,1,1,147102,469
control_ts_30_A1,1,test,P,89,1,668,332,P,1,<rshift>,1,1,148102,487
control_ts_30_A1,1,test,P,90,3,668,532,P,1,<rshift>,1,1,149101,439
control_ts_30_A1,1,test,P,91,4,868,532,P,1,<rshift>,1,1,150100,399
control_ts_30_A1,1,test,P,92,4,868,532,R,0,NONE,0,1,151103,951
control_ts_30_A1,1,test,P,93,1,668,332,P,1,<rshift>,1,1,152103,403
control_ts_30_A1,1,test,P,94,3,668,532,P,1,<rshift>,1,1,153102,391
control_ts_30_A1,1,test,P,95,3,668,532,P,1,<rshift>,1,1,154088,389
control_ts_30_A1,1,test,P,96,3,668,532,R,0,<rshift>,1,0,155094,366
control_ts_30_A1,1,test,P,97,2,868,332,P,1,<rshift>,1,1,156104,398
control_ts_30_A1,1,test,P,98,2,868,332,P,1,<rshift>,1,1,157104,383
control_ts_30_A1,1,test,P,99,1,668,332,P,1,<rshift>,1,1,158105,390
control_ts_30_A1,1,test,P,100,2,868,332,P,1,<rshift>,1,1,159100,424
control_ts_30_A1,1,test,P,101,3,668,532,P,1,<rshift>,1,1,160104,430
control_ts_30_A1,1,test,P,102,1,668,332,P,1,<rshift>,1,1,161096,421
control_ts_30_A1,1,test,P,103,1,668,332,P,1,<rshift>,1,1,162096,465
control_ts_30_A1,1,test,P,104,3,668,532,P,1,<rshift>,1,1,163104,354
control_ts_30_A1,1,test,P,105,2,868,332,P,1,<rshift>,1,1,164089,345
control_ts_30_A1,1,test,P,106,4,868,532,P,1,<rshift>,1,1,165086,458
control_ts_30_A1,1,test,P,107,3,668,532,P,1,<rshift>,1,1,166087,538
control_ts_30_A1,1,test,P,108,4,868,532,P,1,<rshift>,1,1,167101,487
control_ts_30_A1,1,test,P,109,4,868,532,R,0,NONE,0,1,168086,953
control_ts_30_A1,1,test,P,110,3,668,532,P,1,<rshift>,1,1,169088,457
control_ts_30_A1,1,test,P,111,4,868,532,P,1,<rshift>,1,1,170103,542
control_ts_30_A1,1,test,P,112,2,868,332,R,0,NONE,0,1,171107,952
control_ts_30_A1,1,test,P,113,1,668,332,P,1,<rshift>,1,1,172094,315
control_ts_30_A1,1,test,P,114,3,668,532,R,0,<rshift>,1,0,173100,337
control_ts_30_A1,1,test,P,115,4,868,532,R,0,<rshift>,1,0,174100,351
control_ts_30_A1,1,test,P,116,4,868,532,P,1,<rshift>,1,1,175104,446
control_ts_30_A1,1,test,P,117,3,668,532,P,1,<rshift>,1,1,176104,433
control_ts_30_A1,1,test,P,118,2,868,332,P,1,<rshift>,1,1,177100,468
control_ts_30_A1,1,test,P,119,2,868,332,P,1,<rshift>,1,1,178102,409
control_ts_30_A1,1,test,P,120,3,668,532,P,1,<rshift>,1,1,179103,388
control_ts_30_A1,1,test,P,121,2,868,332,P,1,<rshift>,1,1,180088,367
control_ts_30_A1,1,test,P,122,3,668,532,P,1,<rshift>,1,1,181106,381
control_ts_30_A1,1,test,P,123,2,868,332,P,1,<rshift>,1,1,182088,353
control_ts_30_A1,1,test,P,124,3,668,532,P,1,<rshift>,1,1,183105,383
control_ts_30_A1,1,test,P,125,3,668,532,P,1,<rshift>,1,1,184107,359
control_ts_30_A1,1,test,P,126,2,868,332,P,1,<rshift>,1,1,185105,389
control_ts_30_A1,1,test,P,127,1,668,332,P,1,<rshift>,1,1,186102,378
control_ts_30_A1,1,test,P,128,2,868,332,R,0,<rshift>,1,0,187087,379
control_ts_30_A1,1,test,P,129,1,668,332,R,0,<rshift>,1,0,188104,309
control_ts_30_A1,1,test,P,130,4,868,532,P,1,<rshift>,1,1,189105,312
control_ts_30_A1,1,test,P,131,4,868,532,P,1,<rshift>,1,1,190104,433
control_ts_30_A1,1,test,P,132,4,868,532,P,1,<rshift>,1,1,191087,471
control_ts_30_A1,1,test,P,133,4,868,532,P,1,<rshift>,1,1,192102,377
control_ts_30_A1,1,test,P,134,2,868,332,P,1,<rshift>,1,1,193089,468
control_ts_30_A1,1,test,P,135,2,868,332,R,0,NONE,0,1,194106,952
control_ts_30_A1,1,test,P,136,3,668,532,P,1,<rshift>,1,1,195098,373
control_ts_30_A1,1,test,P,137,3,668,532,P,1,<rshift>,1,1,196089,441
control_ts_30_A1,1,test,P,138,3,668,532,P,1,<rshift>,1,1,197104,432
control_ts_30_A1,1,test,P,139,4,868,532,P,1,<rshift>,1,1,198098,308
control_ts_30_A1,1,test,P,140,4,868,532,P,1,<rshift>,1,1,199086,349
control_ts_30_A1,1,test,P,141,3,668,532,P,1,<rshift>,1,1,200100,335
control_ts_30_A1,1,test,P,142,3,668,532,P,1,<rshift>,1,1,201106,429
control_ts_30_A1,1,test,P,143,2,868,332,R,0,NONE,0,1,202101,952
control_ts_30_A1,1,test,P,144,1,668,332,P,1,<rshift>,1,1,203104,423
control_ts_30_A1,1,test,P,145,2,868,332,P,1,<rshift>,1,1,204102,557
control_ts_30_A1,1,test,P,146,1,668,332,R,0,<rshift>,1,0,205095,458
control_ts_30_A1,1,test,P,147,4,868,532,P,1,<rshift>,1,1,206089,380
control_ts_30_A1,1,test,P,148,4,868,532,P,1,<rshift>,1,1,207102,376
control_ts_30_A1,1,test,P,149,1,668,332,R,0,NONE,0,1,208099,952
control_ts_30_A1,1,test,P,150,1,668,332,P,1,<rshift>,1,1,209107,478
control_ts_30_A1,1,test,P,151,4,868,532,P,1,<rshift>,1,1,210103,535
control_ts_30_A1,1,test,P,152,4,868,532,P,1,<rshift>,1,1,211104,389
control_ts_30_A1,1,test,P,153,2,868,332,P,1,<rshift>,1,1,212087,464
control_ts_30_A1,1,test,P,154,3,668,532,P,1,<rshift>,1,1,213086,472
control_ts_30_A1,1,test,P,155,1,668,332,P,1,<rshift>,1,1,214103,533
control_ts_30_A1,1,test,P,156,2,868,332,P,1,<rshift>,1,1,215103,399
control_ts_30_A1,1,test,P,157,1,668,332,P,1,<rshift>,1,1,216104,340
control_ts_30_A1,1,test,P,158,2,868,332,P,1,<rshift>,1,1,217110,295
control_ts_30_A1,1,test,P,159,1,668,332,P,1,<rshift>,1,1,218095,302
control_ts_30_A1,1,test,P,160,3,668,532,P,1,<rshift>,1,1,219104,379
control_ts_30_A1,1,test,P,161,1,668,332,R,0,<rshift>,1,0,220105,403
control_ts_30_A1,1,test,P,162,4,868,532,P,1,<rshift>,1,1,221089,386
control_ts_30_A1,1,test,P,163,3,668,532,R,0,NONE,0,1,222092,951
control_ts_30_A1,1,test,P,164,4,868,532,P,1,<rshift>,1,1,223103,370
control_ts_30_A1,1,test,P,165,1,668,332,P,1,<rshift>,1,1,224102,352
control_ts_30_A1,1,test,P,166,4,868,532,P,1,<rshift>,1,1,225103,423
control_ts_30_A1,1,test,P,167,4,868,532,P,1,<rshift>,1,1,226099,540
control_ts_30_A1,1,test,P,168,2,868,332,P,1,<rshift>,1,1,227099,430
control_ts_30_A1,1,test,P,169,4,868,532,P,1,<rshift>,1,1,228105,518
control_ts_30_A1,1,test,P,170,2,868,332,P,1,<rshift>,1,1,229088,335
control_ts_30_A1,1,test,P,171,3,668,532,P,1,<rshift>,1,1,230095,494
control_ts_30_A1,1,test,P,172,4,868,532,R,0,NONE,0,1,231103,952
control_ts_30_A1,1,test,P,173,2,868,332,P,1,<rshift>,1,1,232088,324
control_ts_30_A1,1,test,P,174,4,868,532,R,0,NONE,0,1,233088,952
control_ts_30_A1,1,test,P,175,2,868,332,P,1,<rshift>,1,1,234098,344
control_ts_30_A1,1,test,P,176,1,668,332,P,1,<rshift>,1,1,235102,418
control_ts_30_A1,1,test,P,177,4,868,532,P,1,<rshift>,1,1,236100,443
control_ts_30_A1,1,test,P,178,1,668,332,P,1,<rshift>,1,1,237102,483
control_ts_30_A1,1,test,P,179,3,668,532,P,1,<rshift>,1,1,238101,365
control_ts_30_A1,1,test,P,180,2,868,332,R,0,<rshift>,1,0,239087,336
control_ts_30_A1,1,test,P,181,1,668,332,R,0,NONE,0,1,240102,952
control_ts_30_A1,1,test,P,182,2,868,332,P,1,<rshift>,1,1,241101,415
control_ts_30_A1,1,test,P,183,3,668,532,P,1,<rshift>,1,1,242102,388
control_ts_30_A1,1,test,P,184,4,868,532,P,1,<rshift>,1,1,243102,363
control_ts_30_A1,1,test,P,185,1,668,332,P,1,<rshift>,1,1,244105,359
control_ts_30_A1,1,test,P,186,2,868,332,P,1,<rshift>,1,1,245103,292
control_ts_30_A1,1,test,P,187,2,868,332,P,1,<rshift>,1,1,246104,372
control_ts_30_A1,1,test,P,188,1,668,332,P,1,<rshift>,1,1,247104,402
control_ts_30_A1,1,test,P,189,2,868,332,R,0,NONE,0,1,248103,952
control_ts_30_A1,1,test,P,190,2,868,332,P,1,<rshift>,1,1,249103,394
control_ts_30_A1,1,test,P,191,3,668,532,P,1,<rshift>,1,1,250104,352
control_ts_30_A1,1,test,P,192,1,668,332,P,1,<rshift>,1,1,251105,396
control_ts_30_A1,1,test,P,193,2,868,332,P,1,<rshift>,1,1,252087,492
control_ts_30_A1,1,test,P,194,1,668,332,R,0,NONE,0,1,253089,952
control_ts_30_A1,1,test,P,195,1,668,332,P,1,<rshift>,1,1,254099,406
control_ts_30_A1,1,test,P,196,3,668,532,P,1,<rshift>,1,1,255101,342
control_ts_30_A1,1,test,P,197,1,668,332,P,1,<rshift>,1,1,256104,543
control_ts_30_A1,1,test,P,198,2,868,332,P,1,<rshift>,1,1,257101,346
control_ts_30_A1,1,test,P,199,2,868,332,R,0,<rshift>,1,0,258097,364
control_ts_30_A1,1,test,P,200,1,668,332,P,1,<rshift>,1,1,259102,432
control_ts_30_A1,1,test,P,201,4,868,532,P,1,<rshift>,1,1,260088,403
control_ts_30_A1,1,test,P,202,4,868,532,P,1,<rshift>,1,1,261098,385
control_ts_30_A1,1,test,P,203,3,668,532,R,0,NONE,0,1,262092,952
control_ts_30_A1,1,test,P,204,4,868,532,P,1,<rshift>,1,1,263102,364
control_ts_30_A1,1,test,P,205,4,868,532,P,1,<rshift>,1,1,264100,420
control_ts_30_A1,1,test,P,206,1,668,332,P,1,<rshift>,1,1,265089,500
control_ts_30_A1,1,test,P,207,1,668,332,P,1,<rshift>,1,1,266087,343
control_ts_30_A1,1,test,P,208,3,668,532,P,1,<rshift>,1,1,267102,464
control_ts_30_A1,1,test,P,209,2,868,332,P,1,<rshift>,1,1,268094,441
control_ts_30_A1,1,test,P,210,2,868,332,P,1,<rshift>,1,1,269103,306
control_ts_30_A1,1,test,P,211,2,868,332,P,1,<rshift>,1,1,270102,310
control_ts_30_A1,1,test,P,212,2,868,332,P,1,<rshift>,1,1,271104,334
control_ts_30_A1,1,test,P,213,3,668,532,P,1,<rshift>,1,1,272104,476
control_ts_30_A1,1,test,P,214,2,868,332,P,1,<rshift>,1,1,273103,389
control_ts_30_A1,1,test,P,215,2,868,332,P,1,<rshift>,1,1,274099,414
control_ts_30_A1,1,test,P,216,2,868,332,P,1,<rshift>,1,1,275087,538
control_ts_30_A1,1,test,P,217,3,668,532,P,1,<rshift>,1,1,276089,400
control_ts_30_A1,1,test,P,218,1,668,332,P,1,<rshift>,1,1,277106,452
control_ts_30_A1,1,test,P,219,4,868,532,P,1,<rshift>,1,1,278097,387
control_ts_30_A1,1,test,P,220,4,868,532,P,1,<rshift>,1,1,279105,458
control_ts_30_A1,1,test,P,221,4,868,532,P,1,<rshift>,1,1,280103,320
control_ts_30_A1,1,test,P,222,2,868,332,P,1,<rshift>,1,1,281104,348
control_ts_30_A1,1,test,P,223,4,868,532,P,1,<rshift>,1,1,282089,334
control_ts_30_A1,1,test,P,224,4,868,532,R,0,<rshift>,1,0,283104,344
control_ts_30_A1,1,test,P,225,4,868,532,P,1,<rshift>,1,1,284095,378
control_ts_30_A1,1,test,P,226,1,668,332,P,1,<rshift>,1,1,285102,426
control_ts_30_A1,1,test,P,227,3,668,532,P,1,<rshift>,1,1,286099,393
control_ts_30_A1,1,test,P,228,3,668,532,P,1,<rshift>,1,1,287100,396
control_ts_30_A1,1,test,P,229,3,668,532,R,0,<rshift>,1,0,288103,463
control_ts_30_A1,1,test,P,230,2,868,332,P,1,<rshift>,1,1,289102,312
control_ts_30_A1,1,test,P,231,1,668,332,P,1,<rshift>,1,1,290104,346
control_ts_30_A1,1,test,P,232,2,868,332,P,1,<rshift>,1,1,291096,353
control_ts_30_A1,1,test,P,233,2,868,332,R,0,NONE,0,1,292103,954
control_ts_30_A1,1,test,P,234,2,868,332,P,1,<rshift>,1,1,293100,436
control_ts_30_A1,1,test,P,235,1,668,332,P,1,<rshift>,1,1,294100,370
control_ts_30_A1,1,test,P,236,4,868,532,P,1,<rshift>,1,1,295091,388
control_ts_30_A1,1,test,P,237,2,868,332,P,1,<rshift>,1,1,296088,351
control_ts_30_A1,1,test,P,238,3,668,532,R,0,NONE,0,1,297103,951
control_ts_30_A1,1,test,P,239,1,668,332,P,1,<rshift>,1,1,298097,409
control_ts_30_A1,1,test,P,240,1,668,332,P,1,<rshift>,1,1,299102,408
control_ts_30_A1,1,test,P,241,1,668,332,R,0,<rshift>,1,0,300108,400
control_ts_30_A1,1,test,P,242,1,668,332,P,1,<rshift>,1,1,301099,381
control_ts_30_A1,1,test,P,243,4,868,532,P,1,<rshift>,1,1,302103,459
control_ts_30_A1,1,test,P,244,1,668,332,P,1,<rshift>,1,1,303104,448
control_ts_30_A1,1,test,P,245,2,868,332,R,0,NONE,0,1,304103,952
control_ts_30_A1,1,test,P,246,4,868,532,P,1,<rshift>,1,1,305103,360
control_ts_30_A1,1,test,P,247,2,868,332,P,1,<rshift>,1,1,306112,464
control_ts_30_A1,1,test,P,248,4,868,532,P,1,<rshift>,1,1,307090,436
control_ts_30_A1,1,test,P,249,4,868,532,P,1,<rshift>,1,1,308088,374
control_ts_30_A1,1,test,P,250,3,668,532,P,1,<rshift>,1,1,309098,423
control_ts_30_A1,1,test,P,251,3,668,532,R,0,NONE,0,1,310088,951
control_ts_30_A1,1,test,P,252,3,668,532,P,1,<rshift>,1,1,311101,401
control_ts_30_A1,1,test,P,253,1,668,332,P,1,<rshift>,1,1,312105,394
control_ts_30_A1,1,test,P,254,4,868,532,P,1,<rshift>,1,1,313110,369
control_ts_30_A1,1,test,P,255,2,868,332,R,0,NONE,0,1,314106,951
control_ts_30_A1,1,test,P,256,4,868,532,P,1,<rshift>,1,1,315105,438
control_ts_30_A1,1,test,P,257,3,668,532,P,1,<rshift>,1,1,316103,361
control_ts_30_A1,1,test,P,258,1,668,332,P,1,<rshift>,1,1,317103,384
control_ts_30_A1,1,test,P,259,3,668,532,P,1,<rshift>,1,1,318088,387
control_ts_30_A1,1,test,P,260,1,668,332,P,1,<rshift>,1,1,319102,427
control_ts_30_A1,1,test,P,261,2,868,332,P,1,<rshift>,1,1,320105,411
control_ts_30_A1,1,test,P,262,1,668,332,P,1,<rshift>,1,1,321098,399
control_ts_30_A1,1,test,P,263,3,668,532,P,1,<rshift>,1,1,322102,362
control_ts_30_A1,1,test,P,264,3,668,532,P,1,<rshift>,1,1,323087,441
control_ts_30_A1,1,test,P,265,3,668,532,P,1,<rshift>,1,1,324088,402
control_ts_30_A1,1,test,P,266,3,668,532,P,1,<rshift>,1,1,325088,436
control_ts_30_A1,1,test,P,267,3,668,532,P,1,<rshift>,1,1,326103,376
control_ts_30_A1,1,test,P,268,4,868,532,P,1,<rshift>,1,1,327100,446
control_ts_30_A1,1,test,P,269,4,868,532,P,1,<rshift>,1,1,328096,377
control_ts_30_A1,1,test,P,270,1,668,332,P,1,<rshift>,1,1,329102,343
control_ts_30_A1,1,test,P,271,4,868,532,R,0,<rshift>,1,0,330087,379
control_ts_30_A1,1,test,P,272,1,668,332,P,1,<rshift>,1,1,331087,349
control_ts_30_A1,1,test,P,273,1,668,332,R,0,NONE,0,1,332104,952
control_ts_30_A1,1,test,P,274,2,868,332,P,1,<rshift>,1,1,333088,459
control_ts_30_A1,1,test,P,275,1,668,332,P,1,<rshift>,1,1,334107,394
control_ts_30_A1,1,test,P,276,1,668,332,P,1,<rshift>,1,1,335088,478
control_ts_30_A1,1,test,P,277,3,668,532,P,1,<rshift>,1,1,336102,668
control_ts_30_A1,1,test,P,278,1,668,332,P,1,<rshift>,1,1,337088,413
control_ts_30_A1,1,test,P,279,2,868,332,P,1,<rshift>,1,1,338100,374
control_ts_30_A1,1,test,P,280,1,668,332,R,0,NONE,0,1,339101,951
control_ts_30_A1,1,test,P,281,3,668,532,P,1,<rshift>,1,1,340102,373
control_ts_30_A1,1,test,P,282,1,668,332,P,1,<rshift>,1,1,341098,377
control_ts_30_A1,1,test,P,283,3,668,532,P,1,<rshift>,1,1,342103,418
control_ts_30_A1,1,test,P,284,3,668,532,R,0,NONE,0,1,343087,951
control_ts_30_A1,1,test,P,285,2,868,332,P,1,<rshift>,1,1,344094,340
control_ts_30_A1,1,test,P,286,1,668,332,P,1,<rshift>,1,1,345088,360
control_ts_30_A1,1,test,P,287,4,868,532,R,0,NONE,0,1,346102,951
control_ts_30_A1,1,test,P,288,1,668,332,P,1,<rshift>,1,1,347087,296
control_ts_30_A1,1,test,P,289,2,868,332,P,1,<rshift>,1,1,348088,378
control_ts_30_A1,1,test,P,290,3,668,532,P,1,<rshift>,1,1,349100,358
control_ts_30_A1,1,test,P,291,3,668,532,P,1,<rshift>,1,1,350088,412
control_ts_30_A1,1,test,P,292,2,868,332,P,1,<rshift>,1,1,351106,427
control_ts_30_A1,1,test,P,293,3,668,532,R,0,<rshift>,1,0,352095,390
control_ts_30_A1,1,test,P,294,2,868,332,P,1,<rshift>,1,1,353104,423
control_ts_30_A1,1,test,P,295,2,868,332,P,1,<rshift>,1,1,354105,439
control_ts_30_A1,1,test,P,296,2,868,332,P,1,<rshift>,1,1,355088,431
control_ts_30_A1,1,test,P,297,3,668,532,P,1,<rshift>,1,1,356100,430
control_ts_30_A1,1,test,P,298,4,868,532,P,1,<rshift>,1,1,357099,530
control_ts_30_A1,1,test,P,299,4,868,532,P,1,<rshift>,1,1,358101,457
control_ts_30_A1,1,test,P,300,4,868,532,P,1,<rshift>,1,1,359105,421
control_ts_30_A1,2,practice,R,1,2,868,332,R,1,NONE,0,0,376864,953
control_ts_30_A1,2,practice,R,2,1,668,332,R,1,<rshift>,1,1,378885,527
control_ts_30_A1,2,practice,R,3,1,668,332,R,1,NONE,0,0,379427,953
control_ts_30_A1,2,practice,R,4,1,668,332,R,1,NONE,0,0,381459,951
control_ts_30_A1,2,practice,R,5,4,868,532,R,1,<rshift>,1,1,383454,384
control_ts_30_A1,2,practice,R,6,3,668,532,R,1,<rshift>,1,1,383886,535
control_ts_30_A1,2,practice,R,7,4,868,532,P,0,NONE,0,1,384437,951
control_ts_30_A1,2,practice,R,8,1,668,332,R,1,<rshift>,1,1,385423,343
control_ts_30_A1,2,practice,R,9,4,868,532,P,0,NONE,0,1,385814,951
control_ts_30_A1,2,practice,R,10,1,668,332,R,1,<rshift>,1,1,386782,438
control_ts_30_A1,3,test,R,1,4,868,532,R,1,<rshift>,1,1,404820,465
control_ts_30_A1,3,test,R,2,2,868,332,R,1,<rshift>,1,1,405820,343
control_ts_30_A1,3,test,R,3,4,868,532,R,1,<rshift>,1,1,406836,329
control_ts_30_A1,3,test,R,4,4,868,532,P,0,NONE,0,1,407834,951
control_ts_30_A1,3,test,R,5,4,868,532,R,1,<rshift>,1,1,408820,404
control_ts_30_A1,3,test,R,6,3,668,532,P,0,NONE,0,1,409820,952
control_ts_30_A1,3,test,R,7,4,868,532,R,1,<rshift>,1,1,410838,396
control_ts_30_A1,3,test,R,8,4,868,532,R,1,<rshift>,1,1,411837,421
control_ts_30_A1,3,test,R,9,2,868,332,R,1,<rshift>,1,1,412837,377
control_ts_30_A1,3,test,R,10,3,668,532,R,1,<rshift>,1,1,413831,535
control_ts_30_A1,3,test,R,11,3,668,532,R,1,<rshift>,1,1,414823,395
control_ts_30_A1,3,test,R,12,4,868,532,P,0,NONE,0,1,415830,953
control_ts_30_A1,3,test,R,13,2,868,332,R,1,<rshift>,1,1,416832,318
control_ts_30_A1,3,test,R,14,3,668,532,R,1,<rshift>,1,1,417837,355
control_ts_30_A1,3,test,R,15,4,868,532,R,1,<rshift>,1,1,418834,379
control_ts_30_A1,3,test,R,16,4,868,532,R,1,<rshift>,1,1,419836,581
control_ts_30_A1,3,test,R,17,3,668,532,R,1,<rshift>,1,1,420840,474
control_ts_30_A1,3,test,R,18,4,868,532,R,1,<rshift>,1,1,421821,337
control_ts_30_A1,3,test,R,19,1,668,332,R,1,<rshift>,1,1,422837,385
control_ts_30_A1,3,test,R,20,2,868,332,R,1,<rshift>,1,1,423837,534
control_ts_30_A1,3,test,R,21,3,668,532,R,1,<rshift>,1,1,424819,459
control_ts_30_A1,3,test,R,22,4,868,532,P,0,<rshift>,1,0,425837,405
control_ts_30_A1,3,test,R,23,2,868,332,R,1,<rshift>,1,1,426837,351
control_ts_30_A1,3,test,R,24,3,668,532,P,0,<rshift>,1,0,427834,348
control_ts_30_A1,3,test,R,25,2,868,332,R,1,<rshift>,1,1,428838,427
control_ts_30_A1,3,test,R,26,2,868,332,R,1,<rshift>,1,1,429839,389
control_ts_30_A1,3,test,R,27,3,668,532,R,1,<rshift>,1,1,430837,425
control_ts_30_A1,3,test,R,28,3,668,532,R,1,<rshift>,1,1,431837,481
control_ts_30_A1,3,test,R,29,3,668,532,R,1,<rshift>,1,1,432819,434
control_ts_30_A1,3,test,R,30,3,668,532,R,1,<rshift>,1,1,433835,341
control_ts_30_A1,3,test,R,31,2,868,332,R,1,<rshift>,1,1,434835,350
control_ts_30_A1,3,test,R,32,2,868,332,R,1,<rshift>,1,1,435837,326
control_ts_30_A1,3,test,R,33,3,668,532,P,0,<rshift>,1,0,436834,274
control_ts_30_A1,3,test,R,34,3,668,532,P,0,<rshift>,1,0,437833,430
control_ts_30_A1,3,test,R,35,4,868,532,R,1,<rshift>,1,1,438833,418
control_ts_30_A1,3,test,R,36,4,868,532,R,1,<rshift>,1,1,439820,380
control_ts_30_A1,3,test,R,37,1,668,332,R,1,<rshift>,1,1,440834,586
control_ts_30_A1,3,test,R,38,1,668,332,R,1,<rshift>,1,1,441821,400
control_ts_30_A1,3,test,R,39,2,868,332,R,1,<rshift>,1,1,442829,359
control_ts_30_A1,3,test,R,40,4,868,532,P,0,<rshift>,1,0,443822,373
control_ts_30_A1,3,test,R,41,2,868,332,R,1,<rshift>,1,1,444823,369
control_ts_30_A1,3,test,R,42,2,868,332,R,1,<rshift>,1,1,445838,362
control_ts_30_A1,3,test,R,43,1,668,332,R,1,<rshift>,1,1,446828,332
control_ts_30_A1,3,test,R,44,4,868,532,R,1,<rshift>,1,1,447835,400
control_ts_30_A1,3,test,R,45,1,668,332,P,0,NONE,0,1,448837,953
control_ts_30_A1,3,test,R,46,2,868,332,P,0,<rshift>,1,0,449834,306
control_ts_30_A1,3,test,R,47,1,668,332,R,1,<rshift>,1,1,450821,585
control_ts_30_A1,3,test,R,48,4,868,532,P,0,<rshift>,1,0,451835,662
control_ts_30_A1,3,test,R,49,2,868,332,R,1,<rshift>,1,1,452836,388
control_ts_30_A1,3,test,R,50,4,868,532,P,0,NONE,0,1,453833,953
control_ts_30_A1,3,test,R,51,1,668,332,R,1,<rshift>,1,1,454837,419
control_ts_30_A1,3,test,R,52,4,868,532,R,1,<rshift>,1,1,455833,441
control_ts_30_A1,3,test,R,53,1,668,332,R,1,<rshift>,1,1,456832,411
control_ts_30_A1,3,test,R,54,3,668,532,R,1,<rshift>,1,1,457834,448
control_ts_30_A1,3,test,R,55,3,668,532,R,1,<rshift>,1,1,458821,476
control_ts_30_A1,3,test,R,56,2,868,332,R,1,<rshift>,1,1,459834,432
control_ts_30_A1,3,test,R,57,4,868,532,P,0,NONE,0,1,460838,952
control_ts_30_A1,3,test,R,58,1,668,332,R,1,<rshift>,1,1,461819,320
control_ts_30_A1,3,test,R,59,1,668,332,R,1,<rshift>,1,1,462820,422
control_ts_30_A1,3,test,R,60,1,668,332,R,1,<rshift>,1,1,463832,403
control_ts_30_A1,3,test,R,61,4,868,532,R,1,<rshift>,1,1,464837,541
control_ts_30_A1,3,test,R,62,1,668,332,R,1,<rshift>,1,1,465821,562
control_ts_30_A1,3,test,R,63,1,668,332,R,1,<rshift>,1,1,466831,430
control_ts_30_A1,3,test,R,64,2,868,332,R,1,<rshift>,1,1,467833,368
control_ts_30_A1,3,test,R,65,4,868,532,R,1,<rshift>,1,1,468835,431
control_ts_30_A1,3,test,R,66,3,668,532,R,1,<rshift>,1,1,469833,420
control_ts_30_A1,3,test,R,67,1,668,332,P,0,<rshift>,1,0,470835,383
control_ts_30_A1,3,test,R,68,1,668,332,R,1,<rshift>,1,1,471822,536
control_ts_30_A1,3,test,R,69,2,868,332,R,1,<rshift>,1,1,472831,364
control_ts_30_A1,3,test,R,70,3,668,532,R,1,<rshift>,1,1,473820,348
control_ts_30_A1,3,test,R,71,2,868,332,R,1,<rshift>,1,1,474831,411
control_ts_30_A1,3,test,R,72,4,868,532,P,0,NONE,0,1,475829,952
control_ts_30_A1,3,test,R,73,4,868,532,R,1,<rshift>,1,1,476838,472
control_ts_30_A1,3,test,R,74,2,868,332,R,1,<rshift>,1,1,477837,466
control_ts_30_A1,3,test,R,75,2,868,332,R,1,<rshift>,1,1,478822,458
control_ts_30_A1,3,test,R,76,2,868,332,R,1,<rshift>,1,1,479835,344
control_ts_30_A1,3,test,R,77,2,868,332,R,1,<rshift>,1,1,480835,413
control_ts_30_A1,3,test,R,78,4,868,532,R,1,<rshift>,1,1,481834,486
control_ts_30_A1,3,test,R,79,3,668,532,R,1,<rshift>,1,1,482822,371
control_ts_30_A1,3,test,R,80,3,668,532,R,1,<rshift>,1,1,483845,386
control_ts_30_A1,3,test,R,81,4,868,532,R,1,<rshift>,1,1,484839,320
control_ts_30_A1,3,test,R,82,3,668,532,R,1,<rshift>,1,1,485842,397
control_ts_30_A1,3,test,R,83,2,868,332,R,1,<rshift>,1,1,486820,345
control_ts_30_A1,3,test,R,84,1,668,332,R,1,<rshift>,1,1,487834,384
control_ts_30_A1,3,test,R,85,3,668,532,P,0,<rshift>,1,0,488834,411
control_ts_30_A1,3,test,R,86,2,868,332,P,0,<rshift>,1,0,489836,308
control_ts_30_A1,3,test,R,87,4,868,532,R,1,<rshift>,1,1,490819,350
control_ts_30_A1,3,test,R,88,2,868,332,R,1,<rshift>,1,1,491837,486
control_ts_30_A1,3,test,R,89,3,668,532,P,0,NONE,0,1,492833,952
control_ts_30_A1,3,test,R,90,2,868,332,R,1,<rshift>,1,1,493820,338
control_ts_30_A1,3,test,R,91,3,668,532,R,1,<rshift>,1,1,494819,334
control_ts_30_A1,3,test,R,92,4,868,532,R,1,<rshift>,1,1,495836,346
control_ts_30_A1,3,test,R,93,3,668,532,R,1,<rshift>,1,1,496831,472
control_ts_30_A1,3,test,R,94,1,668,332,P,0,<rshift>,1,0,497821,369
control_ts_30_A1,3,test,R,95,4,868,532,R,1,<rshift>,1,1,498831,279
control_ts_30_A1,3,test,R,96,2,868,332,R,1,<rshift>,1,1,499833,391
control_ts_30_A1,3,test,R,97,4,868,532,R,1,<rshift>,1,1,500826,368
control_ts_30_A1,3,test,R,98,3,668,532,R,1,<rshift>,1,1,501833,317
control_ts_30_A1,3,test,R,99,4,868,532,R,1,<rshift>,1,1,502838,340
control_ts_30_A1,3,test,R,100,1,668,332,R,1,<rshift>,1,1,503837,532
control_ts_30_A1,3,test,R,101,3,668,532,R,1,<rshift>,1,1,504837,451
control_ts_30_A1,3,test,R,102,2,868,332,P,0,<rshift>,1,0,505835,356
control_ts_30_A1,3,test,R,103,1,668,332,R,1,<rshift>,1,1,506820,489
control_ts_30_A1,3,test,R,104,1,668,332,R,1,<rshift>,1,1,507827,372
control_ts_30_A1,3,test,R,105,2,868,332,R,1,<rshift>,1,1,508838,410
control_ts_30_A1,3,test,R,106,4,868,532,R,1,<rshift>,1,1,509837,328
control_ts_30_A1,3,test,R,107,2,868,332,R,1,<rshift>,1,1,510829,303
control_ts_30_A1,3,test,R,108,2,868,332,R,1,<rshift>,1,1,511837,334
control_ts_30_A1,3,test,R,109,1,668,332,R,1,<rshift>,1,1,512838,393
control_ts_30_A1,3,test,R,110,4,868,532,R,1,<rshift>,1,1,513837,373
control_ts_30_A1,3,test,R,111,1,668,332,R,1,<rshift>,1,1,514834,355
control_ts_30_A1,3,test,R,112,1,668,332,R,1,<rshift>,1,1,515831,387
control_ts_30_A1,3,test,R,113,1,668,332,R,1,<rshift>,1,1,516835,383
control_ts_30_A1,3,test,R,114,1,668,332,R,1,<rshift>,1,1,517836,335
control_ts_30_A1,3,test,R,115,4,868,532,R,1,<rshift>,1,1,518832,396
control_ts_30_A1,3,test,R,116,3,668,532,R,1,<rshift>,1,1,519822,321
control_ts_30_A1,3,test,R,117,4,868,532,R,1,<rshift>,1,1,520832,316
control_ts_30_A1,3,test,R,118,2,868,332,R,1,<rshift>,1,1,521837,533
control_ts_30_A1,3,test,R,119,2,868,332,R,1,<rshift>,1,1,522835,323
control_ts_30_A1,3,test,R,120,3,668,532,P,0,NONE,0,1,523835,953
control_ts_30_A1,3,test,R,121,2,868,332,R,1,<rshift>,1,1,524820,350
control_ts_30_A1,3,test,R,122,3,668,532,P,0,NONE,0,1,525820,955
control_ts_30_A1,3,test,R,123,4,868,532,P,0,<rshift>,1,0,526836,325
control_ts_30_A1,3,test,R,124,2,868,332,R,1,<rshift>,1,1,527836,411
control_ts_30_A1,3,test,R,125,4,868,532,R,1,<rshift>,1,1,528839,461
control_ts_30_A1,3,test,R,126,3,668,532,P,0,NONE,0,1,529835,953
control_ts_30_A1,3,test,R,127,3,668,532,P,0,NONE,0,1,530835,953
control_ts_30_A1,3,test,R,128,4,868,532,R,1,<rshift>,1,1,531821,469
control_ts_30_A1,3,test,R,129,3,668,532,R,1,<rshift>,1,1,532837,477
control_ts_30_A1,3,test,R,130,3,668,532,R,1,<rshift>,1,1,533836,369
control_ts_30_A1,3,test,R,131,3,668,532,R,1,<rshift>,1,1,534837,501
control_ts_30_A1,3,test,R,132,2,868,332,R,1,<rshift>,1,1,535822,419
control_ts_30_A1,3,test,R,133,3,668,532,R,1,<rshift>,1,1,536838,460
control_ts_30_A1,3,test,R,134,1,668,332,R,1,<rshift>,1,1,537836,322
control_ts_30_A1,3,test,R,135,1,668,332,R,1,<rshift>,1,1,538820,432
control_ts_30_A1,3,test,R,136,4,868,532,R,1,<rshift>,1,1,539834,366
control_ts_30_A1,3,test,R,137,1,668,332,R,1,<rshift>,1,1,540827,379
control_ts_30_A1,3,test,R,138,4,868,532,R,1,<rshift>,1,1,541835,433
control_ts_30_A1,3,test,R,139,1,668,332,R,1,<rshift>,1,1,542836,385
control_ts_30_A1,3,test,R,140,4,868,532,R,1,<rshift>,1,1,543821,358
control_ts_30_A1,3,test,R,141,1,668,332,R,1,<rshift>,1,1,544820,393
control_ts_30_A1,3,test,R,142,3,668,532,R,1,<rshift>,1,1,545821,324
control_ts_30_A1,3,test,R,143,4,868,532,R,1,<rshift>,1,1,546829,485
control_ts_30_A1,3,test,R,144,2,868,332,R,1,<rshift>,1,1,547840,534
control_ts_30_A1,3,test,R,145,4,868,532,R,1,<rshift>,1,1,548831,414
control_ts_30_A1,3,test,R,146,4,868,532,R,1,<rshift>,1,1,549836,459
control_ts_30_A1,3,test,R,147,3,668,532,R,1,<rshift>,1,1,550832,436
control_ts_30_A1,3,test,R,148,1,668,332,R,1,<rshift>,1,1,551838,410
control_ts_30_A1,3,test,R,149,1,668,332,R,1,<rshift>,1,1,552836,417
control_ts_30_A1,3,test,R,150,3,668,532,R,1,<rshift>,1,1,553836,443
control_ts_30_A1,3,test,R,151,3,668,532,R,1,<rshift>,1,1,554819,414
control_ts_30_A1,3,test,R,152,1,668,332,P,0,NONE,0,1,555830,951
control_ts_30_A1,3,test,R,153,2,868,332,R,1,<rshift>,1,1,556828,441
control_ts_30_A1,3,test,R,154,3,668,532,R,1,<rshift>,1,1,557823,470
control_ts_30_A1,3,test,R,155,4,868,532,R,1,<rshift>,1,1,558823,517
control_ts_30_A1,3,test,R,156,2,868,332,R,1,<rshift>,1,1,559820,414
control_ts_30_A1,3,test,R,157,2,868,332,R,1,<rshift>,1,1,560834,456
control_ts_30_A1,3,test,R,158,4,868,532,R,1,<rshift>,1,1,561821,487
control_ts_30_A1,3,test,R,159,3,668,532,R,1,<rshift>,1,1,562834,450
control_ts_30_A1,3,test,R,160,2,868,332,R,1,<rshift>,1,1,563821,373
control_ts_30_A1,3,test,R,161,1,668,332,R,1,<rshift>,1,1,564837,384
control_ts_30_A1,3,test,R,162,2,868,332,R,1,<rshift>,1,1,565821,370
control_ts_30_A1,3,test,R,163,1,668,332,R,1,<rshift>,1,1,566836,397
control_ts_30_A1,3,test,R,164,3,668,532,R,1,<rshift>,1,1,567836,458
control_ts_30_A1,3,test,R,165,3,668,532,R,1,<rshift>,1,1,568832,448
control_ts_30_A1,3,test,R,166,1,668,332,P,0,<rshift>,1,0,569839,436
control_ts_30_A1,3,test,R,167,4,868,532,P,0,NONE,0,1,570835,951
control_ts_30_A1,3,test,R,168,3,668,532,R,1,<rshift>,1,1,571820,431
control_ts_30_A1,3,test,R,169,4,868,532,R,1,<rshift>,1,1,572821,411
control_ts_30_A1,3,test,R,170,1,668,332,R,1,<rshift>,1,1,573837,496
control_ts_30_A1,3,test,R,171,4,868,532,R,1,<rshift>,1,1,574838,441
control_ts_30_A1,3,test,R,172,4,868,532,R,1,<rshift>,1,1,575821,457
control_ts_30_A1,3,test,R,173,4,868,532,P,0,<rshift>,1,0,576832,418
control_ts_30_A1,3,test,R,174,4,868,532,R,1,<rshift>,1,1,577835,468
control_ts_30_A1,3,test,R,175,3,668,532,R,1,<rshift>,1,1,578841,452
control_ts_30_A1,3,test,R,176,2,868,332,R,1,<rshift>,1,1,579836,391
control_ts_30_A1,3,test,R,177,2,868,332,R,1,<rshift>,1,1,580838,419
control_ts_30_A1,3,test,R,178,2,868,332,R,1,<rshift>,1,1,581836,479
control_ts_30_A1,3,test,R,179,4,868,532,R,1,<rshift>,1,1,582833,513
control_ts_30_A1,3,test,R,180,2,868,332,P,0,NONE,0,1,583837,953
control_ts_30_A1,3,test,R,181,2,868,332,R,1,<rshift>,1,1,584836,376
control_ts_30_A1,3,test,R,182,4,868,532,R,1,<rshift>,1,1,585838,552
control_ts_30_A1,3,test,R,183,2,868,332,R,1,<rshift>,1,1,586835,533
control_ts_30_A1,3,test,R,184,4,868,532,P,0,NONE,0,1,587834,951
control_ts_30_A1,3,test,R,185,4,868,532,R,1,<rshift>,1,1,588831,478
control_ts_30_A1,3,test,R,186,4,868,532,R,1,<rshift>,1,1,589837,412
control_ts_30_A1,3,test,R,187,3,668,532,R,1,<rshift>,1,1,590820,459
control_ts_30_A1,3,test,R,188,4,868,532,P,0,NONE,0,1,591835,952
control_ts_30_A1,3,test,R,189,3,668,532,R,1,<rshift>,1,1,592833,408
control_ts_30_A1,3,test,R,190,3,668,532,R,1,<rshift>,1,1,593822,447
control_ts_30_A1,3,test,R,191,3,668,532,R,1,<rshift>,1,1,594826,431
control_ts_30_A1,3,test,R,192,2,868,332,R,1,<rshift>,1,1,595836,453
control_ts_30_A1,3,test,R,193,1,668,332,R,1,<rshift>,1,1,596838,70
control_ts_30_A1,3,test,R,194,4,868,532,P,0,NONE,0,1,597838,951
control_ts_30_A1,3,test,R,195,3,668,532,R,1,<rshift>,1,1,598835,464
control_ts_30_A1,3,test,R,196,4,868,532,R,1,<rshift>,1,1,599821,536
control_ts_30_A1,3,test,R,197,3,668,532,R,1,<rshift>,1,1,600823,474
control_ts_30_A1,3,test,R,198,1,668,332,P,0,NONE,0,1,601838,951
control_ts_30_A1,3,test,R,199,1,668,332,R,1,<rshift>,1,1,602839,421
control_ts_30_A1,3,test,R,200,4,868,532,R,1,<rshift>,1,1,603836,400
control_ts_30_A1,3,test,R,201,1,668,332,P,0,NONE,0,1,604822,951
control_ts_30_A1,3,test,R,202,4,868,532,R,1,<rshift>,1,1,605821,369
control_ts_30_A1,3,test,R,203,2,868,332,P,0,NONE,0,1,606836,952
control_ts_30_A1,3,test,R,204,2,868,332,R,1,<rshift>,1,1,607822,548
control_ts_30_A1,3,test,R,205,4,868,532,P,0,NONE,0,1,608821,952
control_ts_30_A1,3,test,R,206,4,868,532,P,0,NONE,0,1,609831,953
control_ts_30_A1,3,test,R,207,2,868,332,R,1,<rshift>,1,1,610833,466
control_ts_30_A1,3,test,R,208,1,668,332,R,1,<rshift>,1,1,611836,444
control_ts_30_A1,3,test,R,209,3,668,532,P,0,NONE,0,1,612835,952
control_ts_30_A1,3,test,R,210,3,668,532,R,1,<rshift>,1,1,613835,564
control_ts_30_A1,3,test,R,211,3,668,532,R,1,<rshift>,1,1,614838,534
control_ts_30_A1,3,test,R,212,4,868,532,R,1,<rshift>,1,1,615835,524
control_ts_30_A1,3,test,R,213,3,668,532,R,1,<rshift>,1,1,616820,454
control_ts_30_A1,3,test,R,214,2,868,332,R,1,<rshift>,1,1,617837,429
control_ts_30_A1,3,test,R,215,4,868,532,R,1,<rshift>,1,1,618833,401
control_ts_30_A1,3,test,R,216,4,868,532,R,1,<rshift>,1,1,619837,447
control_ts_30_A1,3,test,R,217,2,868,332,R,1,<rshift>,1,1,620822,441
control_ts_30_A1,3,test,R,218,2,868,332,P,0,NONE,0,1,621834,951
control_ts_30_A1,3,test,R,219,2,868,332,P,0,NONE,0,1,622834,951
control_ts_30_A1,3,test,R,220,1,668,332,R,1,<rshift>,1,1,623821,397
control_ts_30_A1,3,test,R,221,1,668,332,R,1,<rshift>,1,1,624832,484
control_ts_30_A1,3,test,R,222,1,668,332,P,0,NONE,0,1,625835,953
control_ts_30_A1,3,test,R,223,3,668,532,R,1,<rshift>,1,1,626835,517
control_ts_30_A1,3,test,R,224,2,868,332,R,1,<rshift>,1,1,627838,381
control_ts_30_A1,3,test,R,225,1,668,332,R,1,<rshift>,1,1,628835,437
control_ts_30_A1,3,test,R,226,3,668,532,R,1,<rshift>,1,1,629820,472
control_ts_30_A1,3,test,R,227,3,668,532,R,1,<rshift>,1,1,630836,443
control_ts_30_A1,3,test,R,228,1,668,332,P,0,<rshift>,1,0,631819,419
control_ts_30_A1,3,test,R,229,3,668,532,P,0,<rshift>,1,0,632837,312
control_ts_30_A1,3,test,R,230,2,868,332,R,1,<rshift>,1,1,633837,418
control_ts_30_A1,3,test,R,231,1,668,332,R,1,<rshift>,1,1,634841,445
control_ts_30_A1,3,test,R,232,2,868,332,R,1,<rshift>,1,1,635824,568
control_ts_30_A1,3,test,R,233,2,868,332,R,1,<rshift>,1,1,636837,494
control_ts_30_A1,3,test,R,234,4,868,532,R,1,<rshift>,1,1,637836,451
control_ts_30_A1,3,test,R,235,4,868,532,R,1,<rshift>,1,1,638831,536
control_ts_30_A1,3,test,R,236,2,868,332,P,0,NONE,0,1,639837,952
control_ts_30_A1,3,test,R,237,2,868,332,R,1,<rshift>,1,1,640837,537
control_ts_30_A1,3,test,R,238,2,868,332,P,0,NONE,0,1,641837,952
control_ts_30_A1,3,test,R,239,1,668,332,R,1,<rshift>,1,1,642822,440
control_ts_30_A1,3,test,R,240,3,668,532,R,1,<rshift>,1,1,643836,438
control_ts_30_A1,3,test,R,241,3,668,532,R,1,<rshift>,1,1,644831,482
control_ts_30_A1,3,test,R,242,4,868,532,R,1,<rshift>,1,1,645821,490
control_ts_30_A1,3,test,R,243,2,868,332,R,1,<rshift>,1,1,646838,454
control_ts_30_A1,3,test,R,244,2,868,332,R,1,<rshift>,1,1,647835,456
control_ts_30_A1,3,test,R,245,4,868,532,R,1,<rshift>,1,1,648836,438
control_ts_30_A1,3,test,R,246,4,868,532,P,0,NONE,0,1,649820,952
control_ts_30_A1,3,test,R,247,3,668,532,R,1,<rshift>,1,1,650820,410
control_ts_30_A1,3,test,R,248,2,868,332,R,1,<rshift>,1,1,651840,345
control_ts_30_A1,3,test,R,249,4,868,532,R,1,<rshift>,1,1,652833,429
control_ts_30_A1,3,test,R,250,3,668,532,R,1,<rshift>,1,1,653836,463
control_ts_30_A1,3,test,R,251,4,868,532,P,0,<rshift>,1,0,654835,429
control_ts_30_A1,3,test,R,252,3,668,532,P,0,<rshift>,1,0,655820,432
control_ts_30_A1,3,test,R,253,1,668,332,R,1,<rshift>,1,1,656820,390
control_ts_30_A1,3,test,R,254,2,868,332,P,0,NONE,0,1,657839,953
control_ts_30_A1,3,test,R,255,4,868,532,R,1,<rshift>,1,1,658821,444
control_ts_30_A1,3,test,R,256,1,668,332,P,0,NONE,0,1,659840,952
control_ts_30_A1,3,test,R,257,3,668,532,R,1,<rshift>,1,1,660834,425
control_ts_30_A1,3,test,R,258,4,868,532,R,1,<rshift>,1,1,661839,486
control_ts_30_A1,3,test,R,259,4,868,532,P,0,NONE,0,1,662820,951
control_ts_30_A1,3,test,R,260,2,868,332,R,1,<rshift>,1,1,663821,411
control_ts_30_A1,3,test,R,261,3,668,532,P,0,NONE,0,1,664838,953
control_ts_30_A1,3,test,R,262,4,868,532,R,1,<rshift>,1,1,665836,521
control_ts_30_A1,3,test,R,263,3,668,532,R,1,<rshift>,1,1,666837,482
control_ts_30_A1,3,test,R,264,1,668,332,P,0,NONE,0,1,667837,952
control_ts_30_A1,3,test,R,265,1,668,332,R,1,<rshift>,1,1,668834,533
control_ts_30_A1,3,test,R,266,2,868,332,R,1,<rshift>,1,1,669821,453
control_ts_30_A1,3,test,R,267,1,668,332,R,1,<rshift>,1,1,670835,530
control_ts_30_A1,3,test,R,268,4,868,532,R,1,<rshift>,1,1,671838,682
control_ts_30_A1,3,test,R,269,2,868,332,R,1,<rshift>,1,1,672819,374
control_ts_30_A1,3,test,R,270,3,668,532,R,1,<rshift>,1,1,673836,351
control_ts_30_A1,3,test,R,271,1,668,332,P,0,NONE,0,1,674838,955
control_ts_30_A1,3,test,R,272,4,868,532,R,1,<rshift>,1,1,675827,366
control_ts_30_A1,3,test,R,273,2,868,332,R,1,<rshift>,1,1,676838,352
control_ts_30_A1,3,test,R,274,1,668,332,R,1,<rshift>,1,1,677837,400
control_ts_30_A1,3,test,R,275,3,668,532,R,1,<rshift>,1,1,678832,350
control_ts_30_A1,3,test,R,276,4,868,532,P,0,NONE,0,1,679836,953
control_ts_30_A1,3,test,R,277,1,668,332,R,1,<rshift>,1,1,680833,351
control_ts_30_A1,3,test,R,278,3,668,532,R,1,<rshift>,1,1,681821,458
control_ts_30_A1,3,test,R,279,1,668,332,P,0,NONE,0,1,682836,951
control_ts_30_A1,3,test,R,280,4,868,532,R,1,<rshift>,1,1,683832,456
control_ts_30_A1,3,test,R,281,4,868,532,R,1,<rshift>,1,1,684837,431
control_ts_30_A1,3,test,R,282,4,868,532,R,1,<rshift>,1,1,685836,486
control_ts_30_A1,3,test,R,283,2,868,332,R,1,<rshift>,1,1,686842,405
control_ts_30_A1,3,test,R,284,3,668,532,R,1,<rshift>,1,1,687832,529
control_ts_30_A1,3,test,R,285,3,668,532,P,0,NONE,0,1,688836,951
control_ts_30_A1,3,test,R,286,1,668,332,R,1,<rshift>,1,1,689835,475
control_ts_30_A1,3,test,R,287,1,668,332,R,1,<rshift>,1,1,690838,439
control_ts_30_A1,3,test,R,288,3,668,532,R,1,<rshift>,1,1,691834,477
control_ts_30_A1,3,test,R,289,4,868,532,R,1,<rshift>,1,1,692836,403
control_ts_30_A1,3,test,R,290,2,868,332,R,1,<rshift>,1,1,693837,374
control_ts_30_A1,3,test,R,291,3,668,532,R,1,<rshift>,1,1,694829,412
control_ts_30_A1,3,test,R,292,3,668,532,P,0,NONE,0,1,695819,953
control_ts_30_A1,3,test,R,293,2,868,332,R,1,<rshift>,1,1,696837,291
control_ts_30_A1,3,test,R,294,2,868,332,R,1,<rshift>,1,1,697837,393
control_ts_30_A1,3,test,R,295,3,668,532,R,1,<rshift>,1,1,698834,445
control_ts_30_A1,3,test,R,296,4,868,532,R,1,<rshift>,1,1,699828,341
control_ts_30_A1,3,test,R,297,4,868,532,R,1,<rshift>,1,1,700837,446
control_ts_30_A1,3,test,R,298,2,868,332,R,1,<rshift>,1,1,701836,350
control_ts_30_A1,3,test,R,299,1,668,332,R,1,<rshift>,1,1,702836,375
control_ts_30_A1,3,test,R,300,4,868,532,P,0,<rshift>,1,0,703840,321
