subnum,block,type,correctresponse,trial,choice,x,y,stim,present,response,responded,corr,starttime,rt
Control_TS_21_A_good,0,practice,P,1,1,620,350,P,1,<rshift>,1,1,13698,547
Control_TS_21_A_good,0,practice,P,2,1,620,350,P,1,<rshift>,1,1,14697,563
Control_TS_21_A_good,0,practice,P,3,3,620,550,P,1,<rshift>,1,1,15700,428
Control_TS_21_A_good,0,practice,P,4,3,620,550,P,1,<rshift>,1,1,16697,345
Control_TS_21_A_good,0,practice,P,5,2,820,350,R,0,NONE,0,1,17700,950
Control_TS_21_A_good,0,practice,P,6,4,820,550,P,1,<rshift>,1,1,18697,332
Control_TS_21_A_good,0,practice,P,7,2,820,350,P,1,<rshift>,1,1,19697,380
Control_TS_21_A_good,0,practice,P,8,2,820,350,P,1,<rshift>,1,1,20700,407
Control_TS_21_A_good,0,practice,P,9,1,620,350,R,0,NONE,0,1,21700,950
Control_TS_21_A_good,0,practice,P,10,1,620,350,P,1,<rshift>,1,1,22697,328
Control_TS_21_A_good,1,test,P,1,3,620,550,P,1,<rshift>,1,1,27412,555
Control_TS_21_A_good,1,test,P,2,1,620,350,P,1,<rshift>,1,1,28412,339
Control_TS_21_A_good,1,test,P,3,4,820,550,R,0,<rshift>,1,0,29413,261
Control_TS_21_A_good,1,test,P,4,4,820,550,R,0,NONE,0,1,30415,950
Control_TS_21_A_good,1,test,P,5,1,620,350,P,1,<rshift>,1,1,31412,358
Control_TS_21_A_good,1,test,P,6,1,620,350,P,1,<rshift>,1,1,32411,365
Control_TS_21_A_good,1,test,P,7,3,620,550,P,1,<rshift>,1,1,33412,450
Control_TS_21_A_good,1,test,P,8,4,820,550,P,1,<rshift>,1,1,34412,375
Control_TS_21_A_good,1,test,P,9,4,820,550,P,1,<rshift>,1,1,35412,313
Control_TS_21_A_good,1,test,P,10,2,820,350,P,1,<rshift>,1,1,36412,360
Control_TS_21_A_good,1,test,P,11,1,620,350,R,0,NONE,0,1,37412,950
Control_TS_21_A_good,1,test,P,12,3,620,550,P,1,<rshift>,1,1,38412,364
Control_TS_21_A_good,1,test,P,13,2,820,350,P,1,<rshift>,1,1,39412,360
Control_TS_21_A_good,1,test,P,14,3,620,550,R,0,NONE,0,1,40412,950
Control_TS_21_A_good,1,test,P,15,4,820,550,P,1,<rshift>,1,1,41412,355
Control_TS_21_A_good,1,test,P,16,2,820,350,R,0,NONE,0,1,42411,951
Control_TS_21_A_good,1,test,P,17,3,620,550,P,1,<rshift>,1,1,43411,321
Control_TS_21_A_good,1,test,P,18,1,620,350,P,1,<rshift>,1,1,44413,376
Control_TS_21_A_good,1,test,P,19,3,620,550,R,0,NONE,0,1,45411,950
Control_TS_21_A_good,1,test,P,20,3,620,550,R,0,NONE,0,1,46411,950
Control_TS_21_A_good,1,test,P,21,3,620,550,P,1,<rshift>,1,1,47411,382
Control_TS_21_A_good,1,test,P,22,2,820,350,R,0,NONE,0,1,48414,950
Control_TS_21_A_good,1,test,P,23,2,820,350,P,1,<rshift>,1,1,49411,439
Control_TS_21_A_good,1,test,P,24,2,820,350,P,1,<rshift>,1,1,50414,380
Control_TS_21_A_good,1,test,P,25,4,820,550,P,1,<rshift>,1,1,51411,475
Control_TS_21_A_good,1,test,P,26,3,620,550,P,1,<rshift>,1,1,52411,355
Control_TS_21_A_good,1,test,P,27,2,820,350,R,0,<rshift>,1,0,53414,299
Control_TS_21_A_good,1,test,P,28,3,620,550,P,1,<rshift>,1,1,54414,466
Control_TS_21_A_good,1,test,P,29,1,620,350,P,1,<rshift>,1,1,55411,332
Control_TS_21_A_good,1,test,P,30,2,820,350,P,1,<rshift>,1,1,56413,596
Control_TS_21_A_good,1,test,P,31,3,620,550,R,0,NONE,0,1,57411,950
Control_TS_21_A_good,1,test,P,32,3,620,550,P,1,<rshift>,1,1,58413,280
Control_TS_21_A_good,1,test,P,33,2,820,350,P,1,<rshift>,1,1,59411,428
Control_TS_21_A_good,1,test,P,34,3,620,550,R,0,<rshift>,1,0,60411,313
Control_TS_21_A_good,1,test,P,35,3,620,550,P,1,<rshift>,1,1,61411,393
Control_TS_21_A_good,1,test,P,36,1,620,350,P,1,<rshift>,1,1,62413,430
Control_TS_21_A_good,1,test,P,37,2,820,350,P,1,<rshift>,1,1,63413,402
Control_TS_21_A_good,1,test,P,38,4,820,550,P,1,<rshift>,1,1,64413,359
Control_TS_21_A_good,1,test,P,39,1,620,350,R,0,<rshift>,1,0,65411,326
Control_TS_21_A_good,1,test,P,40,2,820,350,P,1,<rshift>,1,1,66410,388
Control_TS_21_A_good,1,test,P,41,3,620,550,P,1,<rshift>,1,1,67412,372
Control_TS_21_A_good,1,test,P,42,2,820,350,P,1,<rshift>,1,1,68410,392
Control_TS_21_A_good,1,test,P,43,2,820,350,P,1,<rshift>,1,1,69411,488
Control_TS_21_A_good,1,test,P,44,2,820,350,R,0,NONE,0,1,70410,950
Control_TS_21_A_good,1,test,P,45,4,820,550,P,1,<rshift>,1,1,71410,421
Control_TS_21_A_good,1,test,P,46,4,820,550,P,1,<rshift>,1,1,72411,367
Control_TS_21_A_good,1,test,P,47,3,620,550,P,1,<rshift>,1,1,73410,345
Control_TS_21_A_good,1,test,P,48,1,620,350,P,1,<rshift>,1,1,74410,379
Control_TS_21_A_good,1,test,P,49,3,620,550,P,1,<rshift>,1,1,75410,325
Control_TS_21_A_good,1,test,P,50,4,820,550,P,1,<rshift>,1,1,76410,304
Control_TS_21_A_good,1,test,P,51,2,820,350,P,1,<rshift>,1,1,77413,446
Control_TS_21_A_good,1,test,P,52,1,620,350,P,1,<rshift>,1,1,78410,323
Control_TS_21_A_good,1,test,P,53,1,620,350,P,1,<rshift>,1,1,79411,389
Control_TS_21_A_good,1,test,P,54,3,620,550,P,1,<rshift>,1,1,80411,324
Control_TS_21_A_good,1,test,P,55,4,820,550,P,1,<rshift>,1,1,81411,486
Control_TS_21_A_good,1,test,P,56,4,820,550,P,1,<rshift>,1,1,82410,367
Control_TS_21_A_good,1,test,P,57,1,620,350,P,1,<rshift>,1,1,83412,288
Control_TS_21_A_good,1,test,P,58,1,620,350,P,1,<rshift>,1,1,84411,325
Control_TS_21_A_good,1,test,P,59,2,820,350,P,1,<rshift>,1,1,85412,318
Control_TS_21_A_good,1,test,P,60,3,620,550,P,1,<rshift>,1,1,86410,263
Control_TS_21_A_good,1,test,P,61,4,820,550,P,1,<rshift>,1,1,87411,338
Control_TS_21_A_good,1,test,P,62,2,820,350,P,1,<rshift>,1,1,88411,280
Control_TS_21_A_good,1,test,P,63,4,820,550,P,1,<rshift>,1,1,89410,304
Control_TS_21_A_good,1,test,P,64,2,820,350,P,1,<rshift>,1,1,90410,291
Control_TS_21_A_good,1,test,P,65,3,620,550,P,1,<rshift>,1,1,91412,253
Control_TS_21_A_good,1,test,P,66,1,620,350,P,1,<rshift>,1,1,92410,292
Control_TS_21_A_good,1,test,P,67,4,820,550,P,1,<rshift>,1,1,93412,263
Control_TS_21_A_good,1,test,P,68,1,620,350,P,1,<rshift>,1,1,94411,220
Control_TS_21_A_good,1,test,P,69,1,620,350,P,1,<rshift>,1,1,95413,297
Control_TS_21_A_good,1,test,P,70,3,620,550,R,0,<rshift>,1,0,96413,235
Control_TS_21_A_good,1,test,P,71,2,820,350,P,1,<rshift>,1,1,97410,316
Control_TS_21_A_good,1,test,P,72,1,620,350,P,1,<rshift>,1,1,98411,323
Control_TS_21_A_good,1,test,P,73,1,620,350,P,1,<rshift>,1,1,99410,305
Control_TS_21_A_good,1,test,P,74,1,620,350,R,0,<rshift>,1,0,100411,235
Control_TS_21_A_good,1,test,P,75,1,620,350,P,1,<rshift>,1,1,101412,306
Control_TS_21_A_good,1,test,P,76,3,620,550,R,0,<rshift>,1,0,102413,354
Control_TS_21_A_good,1,test,P,77,4,820,550,P,1,<rshift>,1,1,103412,397
Control_TS_21_A_good,1,test,P,78,2,820,350,R,0,<rshift>,1,0,104410,277
Control_TS_21_A_good,1,test,P,79,2,820,350,R,0,<rshift>,1,0,105410,313
Control_TS_21_A_good,1,test,P,80,2,820,350,P,1,<rshift>,1,1,106411,413
Control_TS_21_A_good,1,test,P,81,4,820,550,P,1,<rshift>,1,1,107411,427
Control_TS_21_A_good,1,test,P,82,1,620,350,R,0,<rshift>,1,0,108411,278
Control_TS_21_A_good,1,test,P,83,2,820,350,P,1,<rshift>,1,1,109410,366
Control_TS_21_A_good,1,test,P,84,1,620,350,R,0,NONE,0,1,110412,951
Control_TS_21_A_good,1,test,P,85,3,620,550,P,1,<rshift>,1,1,111411,285
Control_TS_21_A_good,1,test,P,86,3,620,550,P,1,<rshift>,1,1,112412,555
Control_TS_21_A_good,1,test,P,87,2,820,350,P,1,<rshift>,1,1,113412,448
Control_TS_21_A_good,1,test,P,88,2,820,350,R,0,<rshift>,1,0,114411,390
Control_TS_21_A_good,1,test,P,89,1,620,350,P,1,<rshift>,1,1,115411,417
Control_TS_21_A_good,1,test,P,90,1,620,350,R,0,NONE,0,1,116410,950
Control_TS_21_A_good,1,test,P,91,1,620,350,P,1,<rshift>,1,1,117410,389
Control_TS_21_A_good,1,test,P,92,3,620,550,P,1,<rshift>,1,1,118411,336
Control_TS_21_A_good,1,test,P,93,1,620,350,P,1,<rshift>,1,1,119411,361
Control_TS_21_A_good,1,test,P,94,2,820,350,P,1,<rshift>,1,1,120411,358
Control_TS_21_A_good,1,test,P,95,1,620,350,P,1,<rshift>,1,1,121411,334
Control_TS_21_A_good,1,test,P,96,3,620,550,P,1,<rshift>,1,1,122413,346
Control_TS_21_A_good,1,test,P,97,2,820,350,P,1,<rshift>,1,1,123411,527
Control_TS_21_A_good,1,test,P,98,3,620,550,P,1,<rshift>,1,1,124412,381
Control_TS_21_A_good,1,test,P,99,4,820,550,R,0,NONE,0,1,125410,950
Control_TS_21_A_good,1,test,P,100,2,820,350,P,1,<rshift>,1,1,126412,310
Control_TS_21_A_good,1,test,P,101,2,820,350,P,1,<rshift>,1,1,127411,344
Control_TS_21_A_good,1,test,P,102,3,620,550,P,1,<rshift>,1,1,128410,305
Control_TS_21_A_good,1,test,P,103,4,820,550,P,1,<rshift>,1,1,129413,335
Control_TS_21_A_good,1,test,P,104,4,820,550,P,1,<rshift>,1,1,130411,374
Control_TS_21_A_good,1,test,P,105,4,820,550,R,0,NONE,0,1,131410,951
Control_TS_21_A_good,1,test,P,106,1,620,350,P,1,<rshift>,1,1,132410,292
Control_TS_21_A_good,1,test,P,107,3,620,550,R,0,<rshift>,1,0,133411,328
Control_TS_21_A_good,1,test,P,108,3,620,550,P,1,<rshift>,1,1,134410,339
Control_TS_21_A_good,1,test,P,109,4,820,550,P,1,<rshift>,1,1,135410,371
Control_TS_21_A_good,1,test,P,110,3,620,550,R,0,<rshift>,1,0,136412,342
Control_TS_21_A_good,1,test,P,111,4,820,550,P,1,<rshift>,1,1,137412,343
Control_TS_21_A_good,1,test,P,112,3,620,550,P,1,<rshift>,1,1,138410,522
Control_TS_21_A_good,1,test,P,113,1,620,350,R,0,NONE,0,1,139412,950
Control_TS_21_A_good,1,test,P,114,4,820,550,R,0,<rshift>,1,0,140410,361
Control_TS_21_A_good,1,test,P,115,3,620,550,P,1,<rshift>,1,1,141411,388
Control_TS_21_A_good,1,test,P,116,4,820,550,P,1,<rshift>,1,1,142411,553
Control_TS_21_A_good,1,test,P,117,4,820,550,P,1,<rshift>,1,1,143410,458
Control_TS_21_A_good,1,test,P,118,1,620,350,P,1,<rshift>,1,1,144411,436
Control_TS_21_A_good,1,test,P,119,4,820,550,P,1,<rshift>,1,1,145411,456
Control_TS_21_A_good,1,test,P,120,2,820,350,P,1,<rshift>,1,1,146410,440
Control_TS_21_A_good,1,test,P,121,2,820,350,P,1,<rshift>,1,1,147412,423
Control_TS_21_A_good,1,test,P,122,4,820,550,P,1,<rshift>,1,1,148411,343
Control_TS_21_A_good,1,test,P,123,1,620,350,P,1,<rshift>,1,1,149412,308
Control_TS_21_A_good,1,test,P,124,3,620,550,P,1,<rshift>,1,1,150410,313
Control_TS_21_A_good,1,test,P,125,2,820,350,P,1,<rshift>,1,1,151413,303
Control_TS_21_A_good,1,test,P,126,3,620,550,P,1,<rshift>,1,1,152410,290
Control_TS_21_A_good,1,test,P,127,2,820,350,R,0,<rshift>,1,0,153411,310
Control_TS_21_A_good,1,test,P,128,1,620,350,R,0,<rshift>,1,0,154410,343
Control_TS_21_A_good,1,test,P,129,2,820,350,P,1,<rshift>,1,1,155411,353
Control_TS_21_A_good,1,test,P,130,2,820,350,P,1,<rshift>,1,1,156412,400
Control_TS_21_A_good,1,test,P,131,3,620,550,P,1,<rshift>,1,1,157411,297
Control_TS_21_A_good,1,test,P,132,2,820,350,P,1,<rshift>,1,1,158411,333
Control_TS_21_A_good,1,test,P,133,3,620,550,P,1,<rshift>,1,1,159411,290
Control_TS_21_A_good,1,test,P,134,2,820,350,P,1,<rshift>,1,1,160410,311
Control_TS_21_A_good,1,test,P,135,4,820,550,P,1,<rshift>,1,1,161412,411
Control_TS_21_A_good,1,test,P,136,2,820,350,P,1,<rshift>,1,1,162411,342
Control_TS_21_A_good,1,test,P,137,1,620,350,P,1,<rshift>,1,1,163410,359
Control_TS_21_A_good,1,test,P,138,3,620,550,P,1,<rshift>,1,1,164410,379
Control_TS_21_A_good,1,test,P,139,4,820,550,P,1,<rshift>,1,1,165410,342
Control_TS_21_A_good,1,test,P,140,1,620,350,P,1,<rshift>,1,1,166411,325
Control_TS_21_A_good,1,test,P,141,4,820,550,P,1,<rshift>,1,1,167410,343
Control_TS_21_A_good,1,test,P,142,1,620,350,P,1,<rshift>,1,1,168411,337
Control_TS_21_A_good,1,test,P,143,4,820,550,P,1,<rshift>,1,1,169412,315
Control_TS_21_A_good,1,test,P,144,4,820,550,P,1,<rshift>,1,1,170411,330
Control_TS_21_A_good,1,test,P,145,1,620,350,P,1,<rshift>,1,1,171410,317
Control_TS_21_A_good,1,test,P,146,4,820,550,P,1,<rshift>,1,1,172410,342
Control_TS_21_A_good,1,test,P,147,3,620,550,P,1,<rshift>,1,1,173411,327
Control_TS_21_A_good,1,test,P,148,4,820,550,P,1,<rshift>,1,1,174411,308
Control_TS_21_A_good,1,test,P,149,4,820,550,P,1,<rshift>,1,1,175411,315
Control_TS_21_A_good,1,test,P,150,3,620,550,P,1,<rshift>,1,1,176412,341
Control_TS_21_A_good,1,test,P,151,2,820,350,P,1,<rshift>,1,1,177412,334
Control_TS_21_A_good,1,test,P,152,2,820,350,P,1,<rshift>,1,1,178410,322
Control_TS_21_A_good,1,test,P,153,4,820,550,P,1,<rshift>,1,1,179411,332
Control_TS_21_A_good,1,test,P,154,2,820,350,R,0,<rshift>,1,0,180411,343
Control_TS_21_A_good,1,test,P,155,3,620,550,R,0,<rshift>,1,0,181412,367
Control_TS_21_A_good,1,test,P,156,3,620,550,R,0,NONE,0,1,182410,950
Control_TS_21_A_good,1,test,P,157,2,820,350,P,1,<rshift>,1,1,183410,312
Control_TS_21_A_good,1,test,P,158,2,820,350,P,1,<rshift>,1,1,184412,401
Control_TS_21_A_good,1,test,P,159,2,820,350,P,1,<rshift>,1,1,185412,374
Control_TS_21_A_good,1,test,P,160,1,620,350,P,1,<rshift>,1,1,186413,355
Control_TS_21_A_good,1,test,P,161,4,820,550,P,1,<rshift>,1,1,187411,314
Control_TS_21_A_good,1,test,P,162,4,820,550,P,1,<rshift>,1,1,188410,302
Control_TS_21_A_good,1,test,P,163,3,620,550,P,1,<rshift>,1,1,189411,349
Control_TS_21_A_good,1,test,P,164,1,620,350,R,0,NONE,0,1,190410,950
Control_TS_21_A_good,1,test,P,165,1,620,350,P,1,<rshift>,1,1,191410,278
Control_TS_21_A_good,1,test,P,166,3,620,550,P,1,<rshift>,1,1,192410,346
Control_TS_21_A_good,1,test,P,167,3,620,550,P,1,NONE,0,0,193410,951
Control_TS_21_A_good,1,test,P,168,1,620,350,P,1,<rshift>,1,1,194410,307
Control_TS_21_A_good,1,test,P,169,1,620,350,P,1,<rshift>,1,1,195411,372
Control_TS_21_A_good,1,test,P,170,3,620,550,P,1,<rshift>,1,1,196410,301
Control_TS_21_A_good,1,test,P,171,2,820,350,P,1,<rshift>,1,1,197410,354
Control_TS_21_A_good,1,test,P,172,3,620,550,R,0,<rshift>,1,0,198411,290
Control_TS_21_A_good,1,test,P,173,2,820,350,R,0,<rshift>,1,0,199412,329
Control_TS_21_A_good,1,test,P,174,4,820,550,R,0,<rshift>,1,0,200410,451
Control_TS_21_A_good,1,test,P,175,4,820,550,P,1,<rshift>,1,1,201411,572
Control_TS_21_A_good,1,test,P,176,4,820,550,P,1,<rshift>,1,1,202410,508
Control_TS_21_A_good,1,test,P,177,3,620,550,P,1,<rshift>,1,1,203410,391
Control_TS_21_A_good,1,test,P,178,2,820,350,P,1,<rshift>,1,1,204411,504
Control_TS_21_A_good,1,test,P,179,3,620,550,P,1,<rshift>,1,1,205413,410
Control_TS_21_A_good,1,test,P,180,2,820,350,P,1,<rshift>,1,1,206412,460
Control_TS_21_A_good,1,test,P,181,1,620,350,P,1,<rshift>,1,1,207411,391
Control_TS_21_A_good,1,test,P,182,1,620,350,P,1,<rshift>,1,1,208410,362
Control_TS_21_A_good,1,test,P,183,1,620,350,P,1,<rshift>,1,1,209410,437
Control_TS_21_A_good,1,test,P,184,4,820,550,P,1,<rshift>,1,1,210410,301
Control_TS_21_A_good,1,test,P,185,3,620,550,R,0,<rshift>,1,0,211411,279
Control_TS_21_A_good,1,test,P,186,1,620,350,P,1,<rshift>,1,1,212411,403
Control_TS_21_A_good,1,test,P,187,4,820,550,R,0,NONE,0,1,213412,951
Control_TS_21_A_good,1,test,P,188,2,820,350,P,1,<rshift>,1,1,214412,342
Control_TS_21_A_good,1,test,P,189,4,820,550,P,1,<rshift>,1,1,215412,570
Control_TS_21_A_good,1,test,P,190,2,820,350,R,0,<rshift>,1,0,216411,347
Control_TS_21_A_good,1,test,P,191,1,620,350,P,1,<rshift>,1,1,217411,365
Control_TS_21_A_good,1,test,P,192,1,620,350,P,1,<rshift>,1,1,218412,614
Control_TS_21_A_good,1,test,P,193,1,620,350,P,1,<rshift>,1,1,219410,431
Control_TS_21_A_good,1,test,P,194,3,620,550,P,1,<rshift>,1,1,220411,368
Control_TS_21_A_good,1,test,P,195,3,620,550,P,1,<rshift>,1,1,221413,272
Control_TS_21_A_good,1,test,P,196,1,620,350,P,1,<rshift>,1,1,222412,343
Control_TS_21_A_good,1,test,P,197,3,620,550,R,0,<rshift>,1,0,223412,305
Control_TS_21_A_good,1,test,P,198,1,620,350,P,1,<rshift>,1,1,224411,348
Control_TS_21_A_good,1,test,P,199,4,820,550,P,1,<rshift>,1,1,225411,326
Control_TS_21_A_good,1,test,P,200,3,620,550,P,1,<rshift>,1,1,226411,326
Control_TS_21_A_good,1,test,P,201,3,620,550,P,1,<rshift>,1,1,227411,321
Control_TS_21_A_good,1,test,P,202,2,820,350,P,1,<rshift>,1,1,228410,300
Control_TS_21_A_good,1,test,P,203,3,620,550,P,1,<rshift>,1,1,229410,295
Control_TS_21_A_good,1,test,P,204,1,620,350,P,1,<rshift>,1,1,230412,338
Control_TS_21_A_good,1,test,P,205,4,820,550,P,1,<rshift>,1,1,231411,321
Control_TS_21_A_good,1,test,P,206,4,820,550,P,1,<rshift>,1,1,232413,335
Control_TS_21_A_good,1,test,P,207,1,620,350,P,1,<rshift>,1,1,233413,266
Control_TS_21_A_good,1,test,P,208,1,620,350,P,1,<rshift>,1,1,234412,322
Control_TS_21_A_good,1,test,P,209,1,620,350,P,1,<rshift>,1,1,235410,298
Control_TS_21_A_good,1,test,P,210,4,820,550,P,1,<rshift>,1,1,236412,286
Control_TS_21_A_good,1,test,P,211,3,620,550,R,0,<rshift>,1,0,237410,299
Control_TS_21_A_good,1,test,P,212,2,820,350,P,1,<rshift>,1,1,238411,314
Control_TS_21_A_good,1,test,P,213,1,620,350,P,1,<rshift>,1,1,239410,332
Control_TS_21_A_good,1,test,P,214,1,620,350,P,1,<rshift>,1,1,240412,344
Control_TS_21_A_good,1,test,P,215,2,820,350,R,0,<rshift>,1,0,241410,361
Control_TS_21_A_good,1,test,P,216,2,820,350,P,1,<rshift>,1,1,242411,308
Control_TS_21_A_good,1,test,P,217,3,620,550,P,1,<rshift>,1,1,243411,332
Control_TS_21_A_good,1,test,P,218,3,620,550,P,1,<rshift>,1,1,244411,333
Control_TS_21_A_good,1,test,P,219,1,620,350,P,1,<rshift>,1,1,245410,298
Control_TS_21_A_good,1,test,P,220,4,820,550,P,1,<rshift>,1,1,246413,317
Control_TS_21_A_good,1,test,P,221,1,620,350,R,0,<rshift>,1,0,247412,296
Control_TS_21_A_good,1,test,P,222,4,820,550,P,1,<rshift>,1,1,248411,312
Control_TS_21_A_good,1,test,P,223,4,820,550,P,1,<rshift>,1,1,249410,374
Control_TS_21_A_good,1,test,P,224,1,620,350,P,1,<rshift>,1,1,250412,338
Control_TS_21_A_good,1,test,P,225,2,820,350,P,1,<rshift>,1,1,251412,287
Control_TS_21_A_good,1,test,P,226,1,620,350,P,1,<rshift>,1,1,252410,348
Control_TS_21_A_good,1,test,P,227,2,820,350,P,1,<rshift>,1,1,253412,318
Control_TS_21_A_good,1,test,P,228,2,820,350,R,0,<rshift>,1,0,254410,275
Control_TS_21_A_good,1,test,P,229,4,820,550,P,1,<rshift>,1,1,255410,296
Control_TS_21_A_good,1,test,P,230,1,620,350,P,1,<rshift>,1,1,256410,299
Control_TS_21_A_good,1,test,P,231,2,820,350,P,1,<rshift>,1,1,257411,330
Control_TS_21_A_good,1,test,P,232,1,620,350,P,1,<rshift>,1,1,258410,293
Control_TS_21_A_good,1,test,P,233,3,620,550,P,1,<rshift>,1,1,259413,476
Control_TS_21_A_good,1,test,P,234,4,820,550,P,1,<rshift>,1,1,260412,323
Control_TS_21_A_good,1,test,P,235,4,820,550,R,0,<rshift>,1,0,261410,325
Control_TS_21_A_good,1,test,P,236,1,620,350,P,1,<rshift>,1,1,262410,306
Control_TS_21_A_good,1,test,P,237,4,820,550,P,1,<rshift>,1,1,263411,312
Control_TS_21_A_good,1,test,P,238,1,620,350,P,1,<rshift>,1,1,264410,312
Control_TS_21_A_good,1,test,P,239,4,820,550,R,0,<rshift>,1,0,265410,374
Control_TS_21_A_good,1,test,P,240,3,620,550,P,1,<rshift>,1,1,266410,306
Control_TS_21_A_good,1,test,P,241,2,820,350,P,1,<rshift>,1,1,267410,310
Control_TS_21_A_good,1,test,P,242,2,820,350,P,1,<rshift>,1,1,268412,350
Control_TS_21_A_good,1,test,P,243,4,820,550,P,1,<rshift>,1,1,269410,395
Control_TS_21_A_good,1,test,P,244,3,620,550,P,1,<rshift>,1,1,270411,346
Control_TS_21_A_good,1,test,P,245,3,620,550,P,1,<rshift>,1,1,271411,302
Control_TS_21_A_good,1,test,P,246,2,820,350,P,1,<rshift>,1,1,272410,492
Control_TS_21_A_good,1,test,P,247,3,620,550,P,1,<rshift>,1,1,273410,345
Control_TS_21_A_good,1,test,P,248,2,820,350,R,0,<rshift>,1,0,274411,349
Control_TS_21_A_good,1,test,P,249,3,620,550,P,1,<rshift>,1,1,275410,376
Control_TS_21_A_good,1,test,P,250,2,820,350,P,1,<rshift>,1,1,276413,337
Control_TS_21_A_good,1,test,P,251,2,820,350,P,1,<rshift>,1,1,277412,310
Control_TS_21_A_good,1,test,P,252,2,820,350,P,1,<rshift>,1,1,278411,295
Control_TS_21_A_good,1,test,P,253,4,820,550,P,1,<rshift>,1,1,279410,296
Control_TS_21_A_good,1,test,P,254,2,820,350,P,1,<rshift>,1,1,280412,283
Control_TS_21_A_good,1,test,P,255,1,620,350,P,1,<rshift>,1,1,281411,275
Control_TS_21_A_good,1,test,P,256,3,620,550,P,1,<rshift>,1,1,282412,208
Control_TS_21_A_good,1,test,P,257,3,620,550,P,1,<rshift>,1,1,283412,372
Control_TS_21_A_good,1,test,P,258,2,820,350,P,1,<rshift>,1,1,284410,215
Control_TS_21_A_good,1,test,P,259,4,820,550,R,0,<rshift>,1,0,285411,258
Control_TS_21_A_good,1,test,P,260,2,820,350,P,1,<rshift>,1,1,286412,252
Control_TS_21_A_good,1,test,P,261,4,820,550,P,1,<rshift>,1,1,287412,314
Control_TS_21_A_good,1,test,P,262,3,620,550,P,1,<rshift>,1,1,288410,332
Control_TS_21_A_good,1,test,P,263,1,620,350,P,1,<rshift>,1,1,289412,188
Control_TS_21_A_good,1,test,P,264,4,820,550,P,1,<rshift>,1,1,290410,84
Control_TS_21_A_good,1,test,P,265,1,620,350,P,1,<rshift>,1,1,291411,220
Control_TS_21_A_good,1,test,P,266,1,620,350,P,1,<rshift>,1,1,292412,179
Control_TS_21_A_good,1,test,P,267,1,620,350,P,1,<rshift>,1,1,293411,315
Control_TS_21_A_good,1,test,P,268,4,820,550,R,0,<rshift>,1,0,294410,290
Control_TS_21_A_good,1,test,P,269,4,820,550,R,0,<rshift>,1,0,295411,269
Control_TS_21_A_good,1,test,P,270,1,620,350,P,1,<rshift>,1,1,296410,364
Control_TS_21_A_good,1,test,P,271,2,820,350,P,1,<rshift>,1,1,297411,307
Control_TS_21_A_good,1,test,P,272,1,620,350,P,1,<rshift>,1,1,298413,283
Control_TS_21_A_good,1,test,P,273,2,820,350,P,1,<rshift>,1,1,299410,263
Control_TS_21_A_good,1,test,P,274,1,620,350,P,1,<rshift>,1,1,300411,228
Control_TS_21_A_good,1,test,P,275,2,820,350,R,0,<rshift>,1,0,301410,453
Control_TS_21_A_good,1,test,P,276,4,820,550,P,1,<rshift>,1,1,302410,321
Control_TS_21_A_good,1,test,P,277,1,620,350,P,1,<rshift>,1,1,303410,299
Control_TS_21_A_good,1,test,P,278,1,620,350,P,1,<rshift>,1,1,304410,352
Control_TS_21_A_good,1,test,P,279,4,820,550,R,0,<rshift>,1,0,305410,308
Control_TS_21_A_good,1,test,P,280,4,820,550,R,0,NONE,0,1,306411,950
Control_TS_21_A_good,1,test,P,281,4,820,550,P,1,<rshift>,1,1,307410,316
Control_TS_21_A_good,1,test,P,282,4,820,550,R,0,<rshift>,1,0,308411,356
Control_TS_21_A_good,1,test,P,283,2,820,350,P,1,<rshift>,1,1,309410,452
Control_TS_21_A_good,1,test,P,284,2,820,350,P,1,<rshift>,1,1,310410,490
Control_TS_21_A_good,1,test,P,285,3,620,550,R,0,NONE,0,1,311412,950
Control_TS_21_A_good,1,test,P,286,3,620,550,P,1,<rshift>,1,1,312410,462
Control_TS_21_A_good,1,test,P,287,2,820,350,P,1,<rshift>,1,1,313411,327
Control_TS_21_A_good,1,test,P,288,1,620,350,P,1,<rshift>,1,1,314410,436
Control_TS_21_A_good,1,test,P,289,3,620,550,R,0,NONE,0,1,315410,951
Control_TS_21_A_good,1,test,P,290,2,820,350,P,1,<rshift>,1,1,316410,275
Control_TS_21_A_good,1,test,P,291,1,620,350,P,1,<rshift>,1,1,317410,300
Control_TS_21_A_good,1,test,P,292,1,620,350,R,0,<rshift>,1,0,318412,297
Control_TS_21_A_good,1,test,P,293,2,820,350,P,1,<rshift>,1,1,319410,316
Control_TS_21_A_good,1,test,P,294,3,620,550,P,1,<rshift>,1,1,320410,361
Control_TS_21_A_good,1,test,P,295,2,820,350,P,1,<rshift>,1,1,321412,297
Control_TS_21_A_good,1,test,P,296,1,620,350,P,1,<rshift>,1,1,322410,308
Control_TS_21_A_good,1,test,P,297,2,820,350,P,1,<rshift>,1,1,323410,309
Control_TS_21_A_good,1,test,P,298,3,620,550,P,1,<rshift>,1,1,324410,379
Control_TS_21_A_good,1,test,P,299,4,820,550,R,0,NONE,0,1,325412,951
Control_TS_21_A_good,1,test,P,300,3,620,550,R,0,<rshift>,1,0,326412,395
Control_TS_21_A_good,2,practice,R,1,4,820,550,R,1,<rshift>,1,1,340012,609
Control_TS_21_A_good,2,practice,R,2,1,620,350,R,1,<rshift>,1,1,341012,327
Control_TS_21_A_good,2,practice,R,3,1,620,350,R,1,<rshift>,1,1,342012,576
Control_TS_21_A_good,2,practice,R,4,1,620,350,R,1,<rshift>,1,1,343014,277
Control_TS_21_A_good,2,practice,R,5,4,820,550,P,0,<rshift>,1,0,344012,264
Control_TS_21_A_good,2,practice,R,6,2,820,350,R,1,<rshift>,1,1,345288,411
Control_TS_21_A_good,2,practice,R,7,1,620,350,P,0,NONE,0,1,346013,950
Control_TS_21_A_good,2,practice,R,8,2,820,350,R,1,<rshift>,1,1,347011,324
Control_TS_21_A_good,2,practice,R,9,1,620,350,R,1,<rshift>,1,1,348014,474
Control_TS_21_A_good,2,practice,R,10,4,820,550,R,1,<rshift>,1,1,349012,369
Control_TS_21_A_good,3,test,R,1,1,620,350,R,1,<rshift>,1,1,353119,369
Control_TS_21_A_good,3,test,R,2,2,820,350,R,1,<rshift>,1,1,354119,325
Control_TS_21_A_good,3,test,R,3,1,620,350,R,1,<rshift>,1,1,355118,261
Control_TS_21_A_good,3,test,R,4,2,820,350,P,0,<rshift>,1,0,356121,312
Control_TS_21_A_good,3,test,R,5,2,820,350,R,1,<rshift>,1,1,357119,394
Control_TS_21_A_good,3,test,R,6,3,620,550,P,0,<rshift>,1,0,358121,336
Control_TS_21_A_good,3,test,R,7,2,820,350,R,1,<rshift>,1,1,359119,352
Control_TS_21_A_good,3,test,R,8,4,820,550,R,1,<rshift>,1,1,360119,311
Control_TS_21_A_good,3,test,R,9,1,620,350,R,1,<rshift>,1,1,361118,303
Control_TS_21_A_good,3,test,R,10,4,820,550,R,1,<rshift>,1,1,362118,354
Control_TS_21_A_good,3,test,R,11,4,820,550,P,0,<rshift>,1,0,363118,330
Control_TS_21_A_good,3,test,R,12,3,620,550,P,0,<rshift>,1,0,364118,328
Control_TS_21_A_good,3,test,R,13,3,620,550,R,1,<rshift>,1,1,365120,472
Control_TS_21_A_good,3,test,R,14,4,820,550,P,0,NONE,0,1,366118,951
Control_TS_21_A_good,3,test,R,15,3,620,550,R,1,<rshift>,1,1,367120,294
Control_TS_21_A_good,3,test,R,16,4,820,550,R,1,<rshift>,1,1,368119,402
Control_TS_21_A_good,3,test,R,17,2,820,350,R,1,<rshift>,1,1,369120,414
Control_TS_21_A_good,3,test,R,18,3,620,550,R,1,<rshift>,1,1,370118,309
Control_TS_21_A_good,3,test,R,19,1,620,350,R,1,<rshift>,1,1,371118,353
Control_TS_21_A_good,3,test,R,20,2,820,350,R,1,<rshift>,1,1,372118,290
Control_TS_21_A_good,3,test,R,21,4,820,550,R,1,<rshift>,1,1,373119,305
Control_TS_21_A_good,3,test,R,22,2,820,350,R,1,<rshift>,1,1,374119,340
Control_TS_21_A_good,3,test,R,23,2,820,350,R,1,<rshift>,1,1,375121,301
Control_TS_21_A_good,3,test,R,24,4,820,550,R,1,<rshift>,1,1,376120,300
Control_TS_21_A_good,3,test,R,25,1,620,350,R,1,<rshift>,1,1,377119,286
Control_TS_21_A_good,3,test,R,26,2,820,350,P,0,<rshift>,1,0,378119,310
Control_TS_21_A_good,3,test,R,27,3,620,550,R,1,<rshift>,1,1,379120,348
Control_TS_21_A_good,3,test,R,28,1,620,350,R,1,<rshift>,1,1,380120,338
Control_TS_21_A_good,3,test,R,29,3,620,550,R,1,<rshift>,1,1,381118,336
Control_TS_21_A_good,3,test,R,30,4,820,550,P,0,<rshift>,1,0,382118,303
Control_TS_21_A_good,3,test,R,31,2,820,350,R,1,<rshift>,1,1,383119,242
Control_TS_21_A_good,3,test,R,32,2,820,350,R,1,<rshift>,1,1,384118,329
Control_TS_21_A_good,3,test,R,33,1,620,350,R,1,<rshift>,1,1,385118,320
Control_TS_21_A_good,3,test,R,34,3,620,550,P,0,<rshift>,1,0,386118,127
Control_TS_21_A_good,3,test,R,35,4,820,550,R,1,<rshift>,1,1,387118,135
Control_TS_21_A_good,3,test,R,36,3,620,550,R,1,<rshift>,1,1,388118,278
Control_TS_21_A_good,3,test,R,37,2,820,350,R,1,<rshift>,1,1,389118,280
Control_TS_21_A_good,3,test,R,38,3,620,550,R,1,<rshift>,1,1,390119,279
Control_TS_21_A_good,3,test,R,39,4,820,550,P,0,<rshift>,1,0,391118,292
Control_TS_21_A_good,3,test,R,40,3,620,550,P,0,<rshift>,1,0,392118,273
Control_TS_21_A_good,3,test,R,41,3,620,550,R,1,<rshift>,1,1,393119,463
Control_TS_21_A_good,3,test,R,42,3,620,550,R,1,<rshift>,1,1,394120,427
Control_TS_21_A_good,3,test,R,43,2,820,350,R,1,<rshift>,1,1,395120,296
Control_TS_21_A_good,3,test,R,44,3,620,550,R,1,<rshift>,1,1,396118,284
Control_TS_21_A_good,3,test,R,45,1,620,350,R,1,<rshift>,1,1,397118,261
Control_TS_21_A_good,3,test,R,46,3,620,550,R,1,<rshift>,1,1,398120,285
Control_TS_21_A_good,3,test,R,47,2,820,350,R,1,<rshift>,1,1,399118,227
Control_TS_21_A_good,3,test,R,48,3,620,550,R,1,<rshift>,1,1,400118,250
Control_TS_21_A_good,3,test,R,49,4,820,550,R,1,<rshift>,1,1,401120,266
Control_TS_21_A_good,3,test,R,50,4,820,550,P,0,<rshift>,1,0,402119,253
Control_TS_21_A_good,3,test,R,51,4,820,550,R,1,<rshift>,1,1,403120,331
Control_TS_21_A_good,3,test,R,52,2,820,350,R,1,<rshift>,1,1,404119,293
Control_TS_21_A_good,3,test,R,53,2,820,350,P,0,<rshift>,1,0,405119,294
Control_TS_21_A_good,3,test,R,54,4,820,550,P,0,NONE,0,1,406118,951
Control_TS_21_A_good,3,test,R,55,2,820,350,P,0,<rshift>,1,0,407119,293
Control_TS_21_A_good,3,test,R,56,1,620,350,R,1,<rshift>,1,1,408119,444
Control_TS_21_A_good,3,test,R,57,1,620,350,R,1,<rshift>,1,1,409118,344
Control_TS_21_A_good,3,test,R,58,2,820,350,R,1,<rshift>,1,1,410119,634
Control_TS_21_A_good,3,test,R,59,3,620,550,R,1,<rshift>,1,1,411118,352
Control_TS_21_A_good,3,test,R,60,3,620,550,R,1,<rshift>,1,1,412119,322
Control_TS_21_A_good,3,test,R,61,1,620,350,P,0,<rshift>,1,0,413120,339
Control_TS_21_A_good,3,test,R,62,1,620,350,R,1,NONE,0,0,414119,950
Control_TS_21_A_good,3,test,R,63,4,820,550,R,1,<rshift>,1,1,415118,520
Control_TS_21_A_good,3,test,R,64,1,620,350,R,1,<rshift>,1,1,416118,280
Control_TS_21_A_good,3,test,R,65,3,620,550,R,1,<rshift>,1,1,417118,314
Control_TS_21_A_good,3,test,R,66,3,620,550,R,1,<rshift>,1,1,418119,456
Control_TS_21_A_good,3,test,R,67,2,820,350,P,0,<rshift>,1,0,419120,311
Control_TS_21_A_good,3,test,R,68,2,820,350,P,0,<rshift>,1,0,420118,354
Control_TS_21_A_good,3,test,R,69,1,620,350,R,1,<rshift>,1,1,421118,412
Control_TS_21_A_good,3,test,R,70,2,820,350,P,0,NONE,0,1,422118,950
Control_TS_21_A_good,3,test,R,71,1,620,350,P,0,<rshift>,1,0,423118,257
Control_TS_21_A_good,3,test,R,72,4,820,550,R,1,<rshift>,1,1,424118,362
Control_TS_21_A_good,3,test,R,73,4,820,550,R,1,<rshift>,1,1,425119,411
Control_TS_21_A_good,3,test,R,74,2,820,350,R,1,<rshift>,1,1,426120,350
Control_TS_21_A_good,3,test,R,75,1,620,350,R,1,<rshift>,1,1,427119,355
Control_TS_21_A_good,3,test,R,76,4,820,550,R,1,<rshift>,1,1,428118,323
Control_TS_21_A_good,3,test,R,77,2,820,350,R,1,<rshift>,1,1,429118,483
Control_TS_21_A_good,3,test,R,78,1,620,350,R,1,<rshift>,1,1,430118,329
Control_TS_21_A_good,3,test,R,79,4,820,550,R,1,<rshift>,1,1,431119,278
Control_TS_21_A_good,3,test,R,80,3,620,550,R,1,<rshift>,1,1,432119,299
Control_TS_21_A_good,3,test,R,81,1,620,350,R,1,<rshift>,1,1,433120,445
Control_TS_21_A_good,3,test,R,82,3,620,550,R,1,<rshift>,1,1,434121,316
Control_TS_21_A_good,3,test,R,83,4,820,550,R,1,<rshift>,1,1,435119,297
Control_TS_21_A_good,3,test,R,84,2,820,350,R,1,<rshift>,1,1,436118,264
Control_TS_21_A_good,3,test,R,85,3,620,550,R,1,<rshift>,1,1,437119,321
Control_TS_21_A_good,3,test,R,86,4,820,550,P,0,<rshift>,1,0,438119,338
Control_TS_21_A_good,3,test,R,87,1,620,350,R,1,<rshift>,1,1,439118,328
Control_TS_21_A_good,3,test,R,88,3,620,550,R,1,<rshift>,1,1,440119,311
Control_TS_21_A_good,3,test,R,89,1,620,350,R,1,<rshift>,1,1,441120,298
Control_TS_21_A_good,3,test,R,90,4,820,550,R,1,<rshift>,1,1,442118,298
Control_TS_21_A_good,3,test,R,91,2,820,350,R,1,<rshift>,1,1,443120,324
Control_TS_21_A_good,3,test,R,92,3,620,550,P,0,<rshift>,1,0,444118,302
Control_TS_21_A_good,3,test,R,93,4,820,550,R,1,<rshift>,1,1,445118,284
Control_TS_21_A_good,3,test,R,94,3,620,550,R,1,<rshift>,1,1,446120,350
Control_TS_21_A_good,3,test,R,95,4,820,550,R,1,<rshift>,1,1,447119,294
Control_TS_21_A_good,3,test,R,96,2,820,350,R,1,<rshift>,1,1,448119,278
Control_TS_21_A_good,3,test,R,97,4,820,550,R,1,<rshift>,1,1,449118,323
Control_TS_21_A_good,3,test,R,98,4,820,550,R,1,<rshift>,1,1,450118,288
Control_TS_21_A_good,3,test,R,99,4,820,550,R,1,<rshift>,1,1,451118,309
Control_TS_21_A_good,3,test,R,100,1,620,350,R,1,<rshift>,1,1,452119,382
Control_TS_21_A_good,3,test,R,101,3,620,550,P,0,<rshift>,1,0,453121,296
Control_TS_21_A_good,3,test,R,102,3,620,550,R,1,<rshift>,1,1,454121,530
Control_TS_21_A_good,3,test,R,103,1,620,350,P,0,<rshift>,1,0,455119,389
Control_TS_21_A_good,3,test,R,104,2,820,350,R,1,<rshift>,1,1,456120,335
Control_TS_21_A_good,3,test,R,105,4,820,550,P,0,<rshift>,1,0,457118,323
Control_TS_21_A_good,3,test,R,106,3,620,550,P,0,<rshift>,1,0,458119,336
Control_TS_21_A_good,3,test,R,107,3,620,550,P,0,NONE,0,1,459118,950
Control_TS_21_A_good,3,test,R,108,4,820,550,P,0,<rshift>,1,0,460118,314
Control_TS_21_A_good,3,test,R,109,2,820,350,R,1,<rshift>,1,1,461121,446
Control_TS_21_A_good,3,test,R,110,2,820,350,R,1,<rshift>,1,1,462118,466
Control_TS_21_A_good,3,test,R,111,2,820,350,P,0,NONE,0,1,463118,951
Control_TS_21_A_good,3,test,R,112,4,820,550,R,1,<rshift>,1,1,464118,354
Control_TS_21_A_good,3,test,R,113,2,820,350,R,1,<rshift>,1,1,465119,337
Control_TS_21_A_good,3,test,R,114,1,620,350,R,1,<rshift>,1,1,466119,391
Control_TS_21_A_good,3,test,R,115,1,620,350,R,1,<rshift>,1,1,467119,371
Control_TS_21_A_good,3,test,R,116,2,820,350,R,1,<rshift>,1,1,468118,338
Control_TS_21_A_good,3,test,R,117,2,820,350,R,1,<rshift>,1,1,469120,363
Control_TS_21_A_good,3,test,R,118,2,820,350,R,1,<rshift>,1,1,470118,396
Control_TS_21_A_good,3,test,R,119,4,820,550,R,1,<rshift>,1,1,471120,447
Control_TS_21_A_good,3,test,R,120,2,820,350,R,1,<rshift>,1,1,472119,573
Control_TS_21_A_good,3,test,R,121,1,620,350,R,1,<rshift>,1,1,473120,448
Control_TS_21_A_good,3,test,R,122,3,620,550,R,1,<rshift>,1,1,474119,407
Control_TS_21_A_good,3,test,R,123,4,820,550,R,1,<rshift>,1,1,475121,286
Control_TS_21_A_good,3,test,R,124,3,620,550,R,1,<rshift>,1,1,476120,376
Control_TS_21_A_good,3,test,R,125,3,620,550,R,1,<rshift>,1,1,477119,430
Control_TS_21_A_good,3,test,R,126,4,820,550,R,1,<rshift>,1,1,478118,284
Control_TS_21_A_good,3,test,R,127,4,820,550,R,1,<rshift>,1,1,479119,359
Control_TS_21_A_good,3,test,R,128,1,620,350,R,1,<rshift>,1,1,480119,313
Control_TS_21_A_good,3,test,R,129,2,820,350,P,0,<rshift>,1,0,481120,305
Control_TS_21_A_good,3,test,R,130,1,620,350,P,0,<rshift>,1,0,482118,305
Control_TS_21_A_good,3,test,R,131,3,620,550,P,0,<rshift>,1,0,483120,345
Control_TS_21_A_good,3,test,R,132,3,620,550,R,1,<rshift>,1,1,484118,401
Control_TS_21_A_good,3,test,R,133,1,620,350,P,0,NONE,0,1,485120,951
Control_TS_21_A_good,3,test,R,134,2,820,350,R,1,<rshift>,1,1,486120,391
Control_TS_21_A_good,3,test,R,135,2,820,350,R,1,<rshift>,1,1,487120,366
Control_TS_21_A_good,3,test,R,136,4,820,550,R,1,<rshift>,1,1,488120,316
Control_TS_21_A_good,3,test,R,137,4,820,550,R,1,<rshift>,1,1,489118,398
Control_TS_21_A_good,3,test,R,138,1,620,350,R,1,<rshift>,1,1,490120,342
Control_TS_21_A_good,3,test,R,139,4,820,550,R,1,<rshift>,1,1,491118,336
Control_TS_21_A_good,3,test,R,140,3,620,550,R,1,<rshift>,1,1,492119,338
Control_TS_21_A_good,3,test,R,141,2,820,350,R,1,<rshift>,1,1,493118,302
Control_TS_21_A_good,3,test,R,142,2,820,350,R,1,<rshift>,1,1,494120,364
Control_TS_21_A_good,3,test,R,143,3,620,550,R,1,<rshift>,1,1,495119,504
Control_TS_21_A_good,3,test,R,144,1,620,350,R,1,<rshift>,1,1,496118,347
Control_TS_21_A_good,3,test,R,145,4,820,550,R,1,<rshift>,1,1,497119,287
Control_TS_21_A_good,3,test,R,146,3,620,550,R,1,<rshift>,1,1,498120,343
Control_TS_21_A_good,3,test,R,147,2,820,350,R,1,<rshift>,1,1,499118,336
Control_TS_21_A_good,3,test,R,148,4,820,550,R,1,<rshift>,1,1,500120,333
Control_TS_21_A_good,3,test,R,149,1,620,350,R,1,<rshift>,1,1,501118,468
Control_TS_21_A_good,3,test,R,150,4,820,550,R,1,<rshift>,1,1,502119,287
Control_TS_21_A_good,3,test,R,151,3,620,550,R,1,<rshift>,1,1,503119,282
Control_TS_21_A_good,3,test,R,152,2,820,350,R,1,<rshift>,1,1,504120,279
Control_TS_21_A_good,3,test,R,153,3,620,550,R,1,<rshift>,1,1,505118,298
Control_TS_21_A_good,3,test,R,154,1,620,350,P,0,<rshift>,1,0,506120,254
Control_TS_21_A_good,3,test,R,155,1,620,350,R,1,<rshift>,1,1,507118,503
Control_TS_21_A_good,3,test,R,156,3,620,550,R,1,<rshift>,1,1,508118,329
Control_TS_21_A_good,3,test,R,157,4,820,550,R,1,<rshift>,1,1,509119,325
Control_TS_21_A_good,3,test,R,158,4,820,550,R,1,<rshift>,1,1,510119,406
Control_TS_21_A_good,3,test,R,159,1,620,350,R,1,<rshift>,1,1,511118,320
Control_TS_21_A_good,3,test,R,160,2,820,350,R,1,<rshift>,1,1,512119,323
Control_TS_21_A_good,3,test,R,161,2,820,350,R,1,<rshift>,1,1,513118,292
Control_TS_21_A_good,3,test,R,162,2,820,350,R,1,<rshift>,1,1,514119,322
Control_TS_21_A_good,3,test,R,163,3,620,550,R,1,<rshift>,1,1,515118,310
Control_TS_21_A_good,3,test,R,164,2,820,350,P,0,<rshift>,1,0,516120,323
Control_TS_21_A_good,3,test,R,165,4,820,550,R,1,<rshift>,1,1,517118,322
Control_TS_21_A_good,3,test,R,166,1,620,350,R,1,<rshift>,1,1,518119,262
Control_TS_21_A_good,3,test,R,167,4,820,550,P,0,<rshift>,1,0,519119,302
Control_TS_21_A_good,3,test,R,168,3,620,550,R,1,<rshift>,1,1,520118,357
Control_TS_21_A_good,3,test,R,169,1,620,350,R,1,<rshift>,1,1,521119,343
Control_TS_21_A_good,3,test,R,170,4,820,550,R,1,<rshift>,1,1,522118,375
Control_TS_21_A_good,3,test,R,171,3,620,550,P,0,<rshift>,1,0,523118,379
Control_TS_21_A_good,3,test,R,172,4,820,550,R,1,<rshift>,1,1,524118,400
Control_TS_21_A_good,3,test,R,173,1,620,350,R,1,<rshift>,1,1,525118,368
Control_TS_21_A_good,3,test,R,174,2,820,350,P,0,<rshift>,1,0,526118,351
Control_TS_21_A_good,3,test,R,175,3,620,550,R,1,<rshift>,1,1,527118,356
Control_TS_21_A_good,3,test,R,176,1,620,350,R,1,<rshift>,1,1,528119,526
Control_TS_21_A_good,3,test,R,177,2,820,350,R,1,NONE,0,0,529119,950
Control_TS_21_A_good,3,test,R,178,2,820,350,R,1,<rshift>,1,1,530120,420
Control_TS_21_A_good,3,test,R,179,2,820,350,R,1,<rshift>,1,1,531118,426
Control_TS_21_A_good,3,test,R,180,3,620,550,P,0,NONE,0,1,532119,950
Control_TS_21_A_good,3,test,R,181,1,620,350,R,1,<rshift>,1,1,533119,464
Control_TS_21_A_good,3,test,R,182,4,820,550,R,1,<rshift>,1,1,534119,295
Control_TS_21_A_good,3,test,R,183,4,820,550,R,1,<rshift>,1,1,535119,315
Control_TS_21_A_good,3,test,R,184,4,820,550,R,1,<rshift>,1,1,536119,275
Control_TS_21_A_good,3,test,R,185,3,620,550,P,0,<rshift>,1,0,537121,311
Control_TS_21_A_good,3,test,R,186,3,620,550,P,0,NONE,0,1,538119,950
Control_TS_21_A_good,3,test,R,187,3,620,550,R,1,<rshift>,1,1,539119,271
Control_TS_21_A_good,3,test,R,188,1,620,350,R,1,<rshift>,1,1,540120,305
Control_TS_21_A_good,3,test,R,189,2,820,350,R,1,<rshift>,1,1,541120,380
Control_TS_21_A_good,3,test,R,190,4,820,550,P,0,<rshift>,1,0,542119,292
Control_TS_21_A_good,3,test,R,191,3,620,550,R,1,<rshift>,1,1,543120,327
Control_TS_21_A_good,3,test,R,192,1,620,350,R,1,<rshift>,1,1,544120,315
Control_TS_21_A_good,3,test,R,193,1,620,350,R,1,<rshift>,1,1,545119,352
Control_TS_21_A_good,3,test,R,194,1,620,350,R,1,<rshift>,1,1,546119,325
Control_TS_21_A_good,3,test,R,195,1,620,350,R,1,<rshift>,1,1,547119,336
Control_TS_21_A_good,3,test,R,196,1,620,350,R,1,<rshift>,1,1,548120,284
Control_TS_21_A_good,3,test,R,197,1,620,350,R,1,<rshift>,1,1,549118,271
Control_TS_21_A_good,3,test,R,198,4,820,550,P,0,<rshift>,1,0,550118,360
Control_TS_21_A_good,3,test,R,199,2,820,350,P,0,<rshift>,1,0,551118,304
Control_TS_21_A_good,3,test,R,200,2,820,350,P,0,NONE,0,1,552118,951
Control_TS_21_A_good,3,test,R,201,3,620,550,R,1,<rshift>,1,1,553119,360
Control_TS_21_A_good,3,test,R,202,4,820,550,R,1,<rshift>,1,1,554119,289
Control_TS_21_A_good,3,test,R,203,4,820,550,R,1,<rshift>,1,1,555119,277
Control_TS_21_A_good,3,test,R,204,2,820,350,R,1,<rshift>,1,1,556118,426
Control_TS_21_A_good,3,test,R,205,3,620,550,R,1,<rshift>,1,1,557119,307
Control_TS_21_A_good,3,test,R,206,4,820,550,R,1,<rshift>,1,1,558119,322
Control_TS_21_A_good,3,test,R,207,2,820,350,R,1,<rshift>,1,1,559118,277
Control_TS_21_A_good,3,test,R,208,1,620,350,P,0,<rshift>,1,0,560119,297
Control_TS_21_A_good,3,test,R,209,4,820,550,R,1,<rshift>,1,1,561118,276
Control_TS_21_A_good,3,test,R,210,2,820,350,R,1,<rshift>,1,1,562118,305
Control_TS_21_A_good,3,test,R,211,1,620,350,R,1,<rshift>,1,1,563120,285
Control_TS_21_A_good,3,test,R,212,3,620,550,R,1,<rshift>,1,1,564118,294
Control_TS_21_A_good,3,test,R,213,1,620,350,P,0,<rshift>,1,0,565119,318
Control_TS_21_A_good,3,test,R,214,3,620,550,R,1,<rshift>,1,1,566118,385
Control_TS_21_A_good,3,test,R,215,2,820,350,R,1,<rshift>,1,1,567119,312
Control_TS_21_A_good,3,test,R,216,2,820,350,P,0,<rshift>,1,0,568120,363
Control_TS_21_A_good,3,test,R,217,1,620,350,R,1,<rshift>,1,1,569119,320
Control_TS_21_A_good,3,test,R,218,4,820,550,R,1,<rshift>,1,1,570119,304
Control_TS_21_A_good,3,test,R,219,2,820,350,R,1,<rshift>,1,1,571120,293
Control_TS_21_A_good,3,test,R,220,4,820,550,R,1,<rshift>,1,1,572118,309
Control_TS_21_A_good,3,test,R,221,4,820,550,R,1,<rshift>,1,1,573118,287
Control_TS_21_A_good,3,test,R,222,2,820,350,R,1,<rshift>,1,1,574119,326
Control_TS_21_A_good,3,test,R,223,1,620,350,P,0,<rshift>,1,0,575119,315
Control_TS_21_A_good,3,test,R,224,2,820,350,R,1,<rshift>,1,1,576118,277
Control_TS_21_A_good,3,test,R,225,1,620,350,P,0,NONE,0,1,577119,950
Control_TS_21_A_good,3,test,R,226,2,820,350,R,1,<rshift>,1,1,578120,263
Control_TS_21_A_good,3,test,R,227,4,820,550,P,0,<rshift>,1,0,579119,315
Control_TS_21_A_good,3,test,R,228,4,820,550,R,1,<rshift>,1,1,580121,316
Control_TS_21_A_good,3,test,R,229,1,620,350,R,1,<rshift>,1,1,581118,617
Control_TS_21_A_good,3,test,R,230,3,620,550,R,1,<rshift>,1,1,582118,348
Control_TS_21_A_good,3,test,R,231,2,820,350,R,1,<rshift>,1,1,583120,325
Control_TS_21_A_good,3,test,R,232,3,620,550,R,1,<rshift>,1,1,584121,309
Control_TS_21_A_good,3,test,R,233,2,820,350,P,0,<rshift>,1,0,585119,337
Control_TS_21_A_good,3,test,R,234,3,620,550,R,1,<rshift>,1,1,586120,323
Control_TS_21_A_good,3,test,R,235,1,620,350,R,1,<rshift>,1,1,587120,327
Control_TS_21_A_good,3,test,R,236,4,820,550,R,1,<rshift>,1,1,588118,306
Control_TS_21_A_good,3,test,R,237,4,820,550,R,1,<rshift>,1,1,589118,298
Control_TS_21_A_good,3,test,R,238,1,620,350,R,1,<rshift>,1,1,590118,307
Control_TS_21_A_good,3,test,R,239,4,820,550,R,1,<rshift>,1,1,591119,263
Control_TS_21_A_good,3,test,R,240,1,620,350,R,1,<rshift>,1,1,592119,277
Control_TS_21_A_good,3,test,R,241,2,820,350,R,1,<rshift>,1,1,593118,308
Control_TS_21_A_good,3,test,R,242,2,820,350,R,1,<rshift>,1,1,594120,325
Control_TS_21_A_good,3,test,R,243,1,620,350,R,1,<rshift>,1,1,595119,316
Control_TS_21_A_good,3,test,R,244,3,620,550,P,0,<rshift>,1,0,596120,255
Control_TS_21_A_good,3,test,R,245,1,620,350,P,0,<rshift>,1,0,597119,820
Control_TS_21_A_good,3,test,R,246,2,820,350,R,1,<rshift>,1,1,598119,371
Control_TS_21_A_good,3,test,R,247,4,820,550,R,1,<rshift>,1,1,599119,291
Control_TS_21_A_good,3,test,R,248,2,820,350,P,0,<rshift>,1,0,600118,304
Control_TS_21_A_good,3,test,R,249,2,820,350,R,1,<rshift>,1,1,601121,399
Control_TS_21_A_good,3,test,R,250,1,620,350,R,1,<rshift>,1,1,602118,370
Control_TS_21_A_good,3,test,R,251,3,620,550,R,1,<rshift>,1,1,603118,339
Control_TS_21_A_good,3,test,R,252,1,620,350,R,1,<rshift>,1,1,604120,557
Control_TS_21_A_good,3,test,R,253,1,620,350,R,1,<rshift>,1,1,605118,409
Control_TS_21_A_good,3,test,R,254,1,620,350,P,0,NONE,0,1,606119,950
Control_TS_21_A_good,3,test,R,255,4,820,550,R,1,<rshift>,1,1,607119,333
Control_TS_21_A_good,3,test,R,256,2,820,350,R,1,<rshift>,1,1,608118,402
Control_TS_21_A_good,3,test,R,257,1,620,350,R,1,<rshift>,1,1,609118,382
Control_TS_21_A_good,3,test,R,258,1,620,350,R,1,<rshift>,1,1,610118,368
Control_TS_21_A_good,3,test,R,259,3,620,550,P,0,<rshift>,1,0,611118,386
Control_TS_21_A_good,3,test,R,260,1,620,350,R,1,<rshift>,1,1,612119,312
Control_TS_21_A_good,3,test,R,261,4,820,550,R,1,<rshift>,1,1,613118,396
Control_TS_21_A_good,3,test,R,262,4,820,550,R,1,<rshift>,1,1,614120,309
Control_TS_21_A_good,3,test,R,263,3,620,550,P,0,<rshift>,1,0,615118,408
Control_TS_21_A_good,3,test,R,264,1,620,350,R,1,<rshift>,1,1,616119,337
Control_TS_21_A_good,3,test,R,265,1,620,350,R,1,<rshift>,1,1,617119,400
Control_TS_21_A_good,3,test,R,266,1,620,350,R,1,<rshift>,1,1,618118,439
Control_TS_21_A_good,3,test,R,267,1,620,350,R,1,<rshift>,1,1,619118,375
Control_TS_21_A_good,3,test,R,268,1,620,350,R,1,<rshift>,1,1,620120,299
Control_TS_21_A_good,3,test,R,269,2,820,350,P,0,NONE,0,1,621118,951
Control_TS_21_A_good,3,test,R,270,4,820,550,R,1,<rshift>,1,1,622119,281
Control_TS_21_A_good,3,test,R,271,2,820,350,R,1,<rshift>,1,1,623118,318
Control_TS_21_A_good,3,test,R,272,1,620,350,R,1,<rshift>,1,1,624118,393
Control_TS_21_A_good,3,test,R,273,4,820,550,R,1,<rshift>,1,1,625118,340
Control_TS_21_A_good,3,test,R,274,4,820,550,R,1,<rshift>,1,1,626120,354
Control_TS_21_A_good,3,test,R,275,3,620,550,R,1,<rshift>,1,1,627119,307
Control_TS_21_A_good,3,test,R,276,3,620,550,R,1,<rshift>,1,1,628121,284
Control_TS_21_A_good,3,test,R,277,4,820,550,P,0,<rshift>,1,0,629120,331
Control_TS_21_A_good,3,test,R,278,1,620,350,R,1,<rshift>,1,1,630118,281
Control_TS_21_A_good,3,test,R,279,3,620,550,R,1,<rshift>,1,1,631120,294
Control_TS_21_A_good,3,test,R,280,1,620,350,R,1,<rshift>,1,1,632119,310
Control_TS_21_A_good,3,test,R,281,4,820,550,R,1,<rshift>,1,1,633121,305
Control_TS_21_A_good,3,test,R,282,4,820,550,R,1,<rshift>,1,1,634118,342
Control_TS_21_A_good,3,test,R,283,1,620,350,R,1,<rshift>,1,1,635120,323
Control_TS_21_A_good,3,test,R,284,4,820,550,R,1,<rshift>,1,1,636119,336
Control_TS_21_A_good,3,test,R,285,2,820,350,R,1,<rshift>,1,1,637119,293
Control_TS_21_A_good,3,test,R,286,1,620,350,R,1,<rshift>,1,1,638118,286
Control_TS_21_A_good,3,test,R,287,1,620,350,R,1,<rshift>,1,1,639119,352
Control_TS_21_A_good,3,test,R,288,3,620,550,R,1,<rshift>,1,1,640120,375
Control_TS_21_A_good,3,test,R,289,3,620,550,R,1,<rshift>,1,1,641119,494
Control_TS_21_A_good,3,test,R,290,2,820,350,R,1,<rshift>,1,1,642119,352
Control_TS_21_A_good,3,test,R,291,2,820,350,R,1,<rshift>,1,1,643120,329
Control_TS_21_A_good,3,test,R,292,4,820,550,R,1,<rshift>,1,1,644118,310
Control_TS_21_A_good,3,test,R,293,1,620,350,P,0,<rshift>,1,0,645119,329
Control_TS_21_A_good,3,test,R,294,3,620,550,R,1,<rshift>,1,1,646119,320
Control_TS_21_A_good,3,test,R,295,3,620,550,R,1,<rshift>,1,1,647119,343
Control_TS_21_A_good,3,test,R,296,2,820,350,R,1,<rshift>,1,1,648120,358
Control_TS_21_A_good,3,test,R,297,3,620,550,R,1,<rshift>,1,1,649118,318
Control_TS_21_A_good,3,test,R,298,2,820,350,R,1,<rshift>,1,1,650118,281
Control_TS_21_A_good,3,test,R,299,1,620,350,R,1,<rshift>,1,1,651118,282
Control_TS_21_A_good,3,test,R,300,2,820,350,R,1,<rshift>,1,1,652118,327
