subnum,block,type,correctresponse,trial,choice,x,y,stim,present,response,responded,corr,starttime,rt
control_ts_28_b,0,practice,P,1,4,820,550,P,1,<rshift>,1,1,30505,436
control_ts_28_b,0,practice,P,2,2,820,350,P,1,<rshift>,1,1,31504,416
control_ts_28_b,0,practice,P,3,4,820,550,P,1,<rshift>,1,1,32504,431
control_ts_28_b,0,practice,P,4,2,820,350,P,1,<rshift>,1,1,33504,387
control_ts_28_b,0,practice,P,5,3,620,550,P,1,<rshift>,1,1,34504,468
control_ts_28_b,0,practice,P,6,3,620,550,R,0,NONE,0,1,35504,950
control_ts_28_b,0,practice,P,7,4,820,550,R,0,<rshift>,1,0,36504,381
control_ts_28_b,0,practice,P,8,4,820,550,P,1,<rshift>,1,1,37903,638
control_ts_28_b,0,practice,P,9,1,620,350,P,1,<rshift>,1,1,38548,558
control_ts_28_b,0,practice,P,10,1,620,350,P,1,<rshift>,1,1,39504,379
control_ts_28_b,1,test,P,1,3,620,550,R,0,NONE,0,1,48126,951
control_ts_28_b,1,test,P,2,2,820,350,P,1,<rshift>,1,1,49126,379
control_ts_28_b,1,test,P,3,1,620,350,P,1,<rshift>,1,1,50126,413
control_ts_28_b,1,test,P,4,4,820,550,P,1,<rshift>,1,1,51128,485
control_ts_28_b,1,test,P,5,1,620,350,P,1,<rshift>,1,1,52126,451
control_ts_28_b,1,test,P,6,3,620,550,P,1,<rshift>,1,1,53126,539
control_ts_28_b,1,test,P,7,2,820,350,P,1,<rshift>,1,1,54125,333
control_ts_28_b,1,test,P,8,4,820,550,P,1,<rshift>,1,1,55126,372
control_ts_28_b,1,test,P,9,1,620,350,P,1,<rshift>,1,1,56126,362
control_ts_28_b,1,test,P,10,4,820,550,R,0,NONE,0,1,57128,950
control_ts_28_b,1,test,P,11,4,820,550,R,0,NONE,0,1,58128,951
control_ts_28_b,1,test,P,12,2,820,350,P,1,<rshift>,1,1,59125,449
control_ts_28_b,1,test,P,13,1,620,350,P,1,<rshift>,1,1,60125,372
control_ts_28_b,1,test,P,14,3,620,550,P,1,<rshift>,1,1,61125,409
control_ts_28_b,1,test,P,15,2,820,350,P,1,<rshift>,1,1,62126,316
control_ts_28_b,1,test,P,16,1,620,350,R,0,<rshift>,1,0,63126,334
control_ts_28_b,1,test,P,17,3,620,550,P,1,<rshift>,1,1,64126,440
control_ts_28_b,1,test,P,18,4,820,550,P,1,<rshift>,1,1,65128,468
control_ts_28_b,1,test,P,19,1,620,350,P,1,<rshift>,1,1,66126,516
control_ts_28_b,1,test,P,20,3,620,550,P,1,<rshift>,1,1,67126,358
control_ts_28_b,1,test,P,21,2,820,350,P,1,<rshift>,1,1,68126,345
control_ts_28_b,1,test,P,22,1,620,350,P,1,<rshift>,1,1,69126,397
control_ts_28_b,1,test,P,23,4,820,550,P,1,<rshift>,1,1,70128,377
control_ts_28_b,1,test,P,24,1,620,350,P,1,<rshift>,1,1,71129,336
control_ts_28_b,1,test,P,25,1,620,350,P,1,<rshift>,1,1,72128,370
control_ts_28_b,1,test,P,26,1,620,350,R,0,<rshift>,1,0,73126,344
control_ts_28_b,1,test,P,27,3,620,550,P,1,<rshift>,1,1,74126,373
control_ts_28_b,1,test,P,28,2,820,350,P,1,<rshift>,1,1,75126,394
control_ts_28_b,1,test,P,29,3,620,550,P,1,<rshift>,1,1,76125,391
control_ts_28_b,1,test,P,30,1,620,350,P,1,<rshift>,1,1,77126,389
control_ts_28_b,1,test,P,31,3,620,550,P,1,<rshift>,1,1,78128,364
control_ts_28_b,1,test,P,32,2,820,350,P,1,<rshift>,1,1,79125,305
control_ts_28_b,1,test,P,33,1,620,350,P,1,<rshift>,1,1,80125,344
control_ts_28_b,1,test,P,34,1,620,350,P,1,<rshift>,1,1,81126,380
control_ts_28_b,1,test,P,35,1,620,350,P,1,<rshift>,1,1,82126,332
control_ts_28_b,1,test,P,36,4,820,550,R,0,NONE,0,1,83127,950
control_ts_28_b,1,test,P,37,1,620,350,P,1,<rshift>,1,1,84125,307
control_ts_28_b,1,test,P,38,3,620,550,P,1,<rshift>,1,1,85128,375
control_ts_28_b,1,test,P,39,2,820,350,P,1,<rshift>,1,1,86126,319
control_ts_28_b,1,test,P,40,1,620,350,R,0,<rshift>,1,0,87126,313
control_ts_28_b,1,test,P,41,3,620,550,R,0,<rshift>,1,0,88127,396
control_ts_28_b,1,test,P,42,1,620,350,P,1,<rshift>,1,1,89125,428
control_ts_28_b,1,test,P,43,2,820,350,R,0,NONE,0,1,90126,950
control_ts_28_b,1,test,P,44,4,820,550,R,0,NONE,0,1,91127,951
control_ts_28_b,1,test,P,45,2,820,350,P,1,<rshift>,1,1,92126,402
control_ts_28_b,1,test,P,46,4,820,550,P,1,<rshift>,1,1,93125,454
control_ts_28_b,1,test,P,47,2,820,350,R,0,NONE,0,1,94126,950
control_ts_28_b,1,test,P,48,1,620,350,P,1,<rshift>,1,1,95127,462
control_ts_28_b,1,test,P,49,4,820,550,P,1,<rshift>,1,1,96125,546
control_ts_28_b,1,test,P,50,2,820,350,P,1,<rshift>,1,1,97126,384
control_ts_28_b,1,test,P,51,4,820,550,P,1,<rshift>,1,1,98126,416
control_ts_28_b,1,test,P,52,3,620,550,R,0,NONE,0,1,99126,950
control_ts_28_b,1,test,P,53,2,820,350,P,1,<rshift>,1,1,100127,463
control_ts_28_b,1,test,P,54,2,820,350,R,0,NONE,0,1,101126,950
control_ts_28_b,1,test,P,55,3,620,550,P,1,<rshift>,1,1,102127,422
control_ts_28_b,1,test,P,56,3,620,550,P,1,<rshift>,1,1,103126,416
control_ts_28_b,1,test,P,57,2,820,350,R,0,NONE,0,1,104126,950
control_ts_28_b,1,test,P,58,1,620,350,R,0,NONE,0,1,105126,950
control_ts_28_b,1,test,P,59,4,820,550,P,1,<rshift>,1,1,106126,443
control_ts_28_b,1,test,P,60,1,620,350,R,0,NONE,0,1,107126,950
control_ts_28_b,1,test,P,61,4,820,550,P,1,<rshift>,1,1,108127,398
control_ts_28_b,1,test,P,62,1,620,350,P,1,<rshift>,1,1,109125,450
control_ts_28_b,1,test,P,63,4,820,550,P,1,<rshift>,1,1,110125,424
control_ts_28_b,1,test,P,64,4,820,550,P,1,<rshift>,1,1,111126,404
control_ts_28_b,1,test,P,65,1,620,350,P,1,<rshift>,1,1,112128,465
control_ts_28_b,1,test,P,66,3,620,550,P,1,<rshift>,1,1,113129,427
control_ts_28_b,1,test,P,67,3,620,550,P,1,<rshift>,1,1,114125,433
control_ts_28_b,1,test,P,68,2,820,350,P,1,<rshift>,1,1,115125,394
control_ts_28_b,1,test,P,69,3,620,550,P,1,<rshift>,1,1,116126,437
control_ts_28_b,1,test,P,70,1,620,350,P,1,<rshift>,1,1,117127,409
control_ts_28_b,1,test,P,71,1,620,350,P,1,<rshift>,1,1,118127,453
control_ts_28_b,1,test,P,72,1,620,350,P,1,<rshift>,1,1,119126,453
control_ts_28_b,1,test,P,73,1,620,350,P,1,<rshift>,1,1,120126,421
control_ts_28_b,1,test,P,74,4,820,550,P,1,<rshift>,1,1,121127,511
control_ts_28_b,1,test,P,75,1,620,350,P,1,<rshift>,1,1,122126,367
control_ts_28_b,1,test,P,76,4,820,550,R,0,NONE,0,1,123126,950
control_ts_28_b,1,test,P,77,3,620,550,P,1,<rshift>,1,1,124126,382
control_ts_28_b,1,test,P,78,2,820,350,P,1,<rshift>,1,1,125128,385
control_ts_28_b,1,test,P,79,1,620,350,P,1,<rshift>,1,1,126126,401
control_ts_28_b,1,test,P,80,2,820,350,P,1,<rshift>,1,1,127126,408
control_ts_28_b,1,test,P,81,1,620,350,R,0,NONE,0,1,128128,951
control_ts_28_b,1,test,P,82,3,620,550,R,0,<rshift>,1,0,129126,385
control_ts_28_b,1,test,P,83,2,820,350,P,1,<rshift>,1,1,130128,461
control_ts_28_b,1,test,P,84,3,620,550,P,1,<rshift>,1,1,131128,392
control_ts_28_b,1,test,P,85,4,820,550,P,1,<rshift>,1,1,132127,460
control_ts_28_b,1,test,P,86,4,820,550,P,1,<rshift>,1,1,133128,418
control_ts_28_b,1,test,P,87,3,620,550,P,1,<rshift>,1,1,134128,430
control_ts_28_b,1,test,P,88,3,620,550,P,1,<rshift>,1,1,135129,419
control_ts_28_b,1,test,P,89,3,620,550,P,1,<rshift>,1,1,136128,443
control_ts_28_b,1,test,P,90,1,620,350,P,1,<rshift>,1,1,137128,424
control_ts_28_b,1,test,P,91,3,620,550,P,1,<rshift>,1,1,138126,430
control_ts_28_b,1,test,P,92,2,820,350,P,1,<rshift>,1,1,139125,405
control_ts_28_b,1,test,P,93,3,620,550,R,0,NONE,0,1,140125,951
control_ts_28_b,1,test,P,94,3,620,550,P,1,<rshift>,1,1,141126,432
control_ts_28_b,1,test,P,95,1,620,350,P,1,<rshift>,1,1,142129,448
control_ts_28_b,1,test,P,96,1,620,350,P,1,<rshift>,1,1,143129,453
control_ts_28_b,1,test,P,97,4,820,550,P,1,<rshift>,1,1,144128,406
control_ts_28_b,1,test,P,98,3,620,550,R,0,NONE,0,1,145126,950
control_ts_28_b,1,test,P,99,2,820,350,P,1,<rshift>,1,1,146128,373
control_ts_28_b,1,test,P,100,2,820,350,P,1,<rshift>,1,1,147127,415
control_ts_28_b,1,test,P,101,2,820,350,P,1,<rshift>,1,1,148127,398
control_ts_28_b,1,test,P,102,1,620,350,P,1,<rshift>,1,1,149126,420
control_ts_28_b,1,test,P,103,4,820,550,R,0,NONE,0,1,150127,950
control_ts_28_b,1,test,P,104,2,820,350,P,1,<rshift>,1,1,151125,383
control_ts_28_b,1,test,P,105,3,620,550,P,1,<rshift>,1,1,152125,440
control_ts_28_b,1,test,P,106,4,820,550,P,1,<rshift>,1,1,153128,471
control_ts_28_b,1,test,P,107,3,620,550,P,1,<rshift>,1,1,154126,433
control_ts_28_b,1,test,P,108,4,820,550,R,0,NONE,0,1,155129,950
control_ts_28_b,1,test,P,109,2,820,350,P,1,<rshift>,1,1,156127,355
control_ts_28_b,1,test,P,110,1,620,350,P,1,<rshift>,1,1,157129,385
control_ts_28_b,1,test,P,111,4,820,550,P,1,<rshift>,1,1,158126,387
control_ts_28_b,1,test,P,112,4,820,550,P,1,<rshift>,1,1,159126,479
control_ts_28_b,1,test,P,113,2,820,350,R,0,NONE,0,1,160126,950
control_ts_28_b,1,test,P,114,2,820,350,P,1,<rshift>,1,1,161128,386
control_ts_28_b,1,test,P,115,4,820,550,P,1,<rshift>,1,1,162127,438
control_ts_28_b,1,test,P,116,3,620,550,P,1,<rshift>,1,1,163126,360
control_ts_28_b,1,test,P,117,2,820,350,P,1,<rshift>,1,1,164128,347
control_ts_28_b,1,test,P,118,1,620,350,P,1,<rshift>,1,1,165126,365
control_ts_28_b,1,test,P,119,2,820,350,P,1,<rshift>,1,1,166126,370
control_ts_28_b,1,test,P,120,1,620,350,P,1,<rshift>,1,1,167126,395
control_ts_28_b,1,test,P,121,3,620,550,P,1,<rshift>,1,1,168127,361
control_ts_28_b,1,test,P,122,1,620,350,P,1,<rshift>,1,1,169126,394
control_ts_28_b,1,test,P,123,4,820,550,P,1,<rshift>,1,1,170125,399
control_ts_28_b,1,test,P,124,2,820,350,P,1,<rshift>,1,1,171125,372
control_ts_28_b,1,test,P,125,1,620,350,P,1,<rshift>,1,1,172127,354
control_ts_28_b,1,test,P,126,2,820,350,P,1,<rshift>,1,1,173127,360
control_ts_28_b,1,test,P,127,4,820,550,P,1,<rshift>,1,1,174126,440
control_ts_28_b,1,test,P,128,4,820,550,P,1,<rshift>,1,1,175126,419
control_ts_28_b,1,test,P,129,3,620,550,R,0,NONE,0,1,176125,951
control_ts_28_b,1,test,P,130,4,820,550,R,0,<rshift>,1,0,177126,387
control_ts_28_b,1,test,P,131,3,620,550,R,0,NONE,0,1,178126,950
control_ts_28_b,1,test,P,132,2,820,350,P,1,<rshift>,1,1,179126,340
control_ts_28_b,1,test,P,133,2,820,350,P,1,<rshift>,1,1,180128,401
control_ts_28_b,1,test,P,134,4,820,550,R,0,NONE,0,1,181126,950
control_ts_28_b,1,test,P,135,4,820,550,R,0,<rshift>,1,0,182128,428
control_ts_28_b,1,test,P,136,2,820,350,P,1,<rshift>,1,1,183128,397
control_ts_28_b,1,test,P,137,1,620,350,P,1,<rshift>,1,1,184126,410
control_ts_28_b,1,test,P,138,4,820,550,P,1,<rshift>,1,1,185129,505
control_ts_28_b,1,test,P,139,1,620,350,P,1,<rshift>,1,1,186126,432
control_ts_28_b,1,test,P,140,1,620,350,P,1,<rshift>,1,1,187126,445
control_ts_28_b,1,test,P,141,4,820,550,R,0,NONE,0,1,188126,950
control_ts_28_b,1,test,P,142,1,620,350,P,1,<rshift>,1,1,189126,469
control_ts_28_b,1,test,P,143,4,820,550,P,1,<rshift>,1,1,190125,407
control_ts_28_b,1,test,P,144,2,820,350,P,1,<rshift>,1,1,191125,417
control_ts_28_b,1,test,P,145,4,820,550,P,1,<rshift>,1,1,192126,419
control_ts_28_b,1,test,P,146,1,620,350,P,1,<rshift>,1,1,193125,446
control_ts_28_b,1,test,P,147,1,620,350,P,1,<rshift>,1,1,194126,412
control_ts_28_b,1,test,P,148,1,620,350,P,1,<rshift>,1,1,195126,394
control_ts_28_b,1,test,P,149,3,620,550,P,1,<rshift>,1,1,196126,435
control_ts_28_b,1,test,P,150,3,620,550,R,0,NONE,0,1,197125,951
control_ts_28_b,1,test,P,151,2,820,350,P,1,<rshift>,1,1,198125,318
control_ts_28_b,1,test,P,152,4,820,550,P,1,<rshift>,1,1,199126,477
control_ts_28_b,1,test,P,153,2,820,350,P,1,<rshift>,1,1,200126,417
control_ts_28_b,1,test,P,154,4,820,550,P,1,<rshift>,1,1,201125,413
control_ts_28_b,1,test,P,155,1,620,350,P,1,<rshift>,1,1,202126,387
control_ts_28_b,1,test,P,156,4,820,550,P,1,<rshift>,1,1,203127,395
control_ts_28_b,1,test,P,157,2,820,350,P,1,<rshift>,1,1,204129,405
control_ts_28_b,1,test,P,158,4,820,550,P,1,<rshift>,1,1,205125,407
control_ts_28_b,1,test,P,159,2,820,350,R,0,NONE,0,1,206125,951
control_ts_28_b,1,test,P,160,1,620,350,P,1,<rshift>,1,1,207126,345
control_ts_28_b,1,test,P,161,2,820,350,P,1,<rshift>,1,1,208126,388
control_ts_28_b,1,test,P,162,2,820,350,P,1,<rshift>,1,1,209126,403
control_ts_28_b,1,test,P,163,4,820,550,P,1,<rshift>,1,1,210126,465
control_ts_28_b,1,test,P,164,1,620,350,P,1,<rshift>,1,1,211126,396
control_ts_28_b,1,test,P,165,3,620,550,P,1,<rshift>,1,1,212127,388
control_ts_28_b,1,test,P,166,2,820,350,P,1,<rshift>,1,1,213126,351
control_ts_28_b,1,test,P,167,1,620,350,P,1,<rshift>,1,1,214126,397
control_ts_28_b,1,test,P,168,1,620,350,P,1,<rshift>,1,1,215128,430
control_ts_28_b,1,test,P,169,2,820,350,P,1,<rshift>,1,1,216126,369
control_ts_28_b,1,test,P,170,2,820,350,P,1,<rshift>,1,1,217127,375
control_ts_28_b,1,test,P,171,2,820,350,P,1,<rshift>,1,1,218126,391
control_ts_28_b,1,test,P,172,1,620,350,P,1,<rshift>,1,1,219127,406
control_ts_28_b,1,test,P,173,1,620,350,P,1,<rshift>,1,1,220126,400
control_ts_28_b,1,test,P,174,4,820,550,P,1,<rshift>,1,1,221126,457
control_ts_28_b,1,test,P,175,3,620,550,R,0,NONE,0,1,222126,950
control_ts_28_b,1,test,P,176,2,820,350,R,0,NONE,0,1,223126,950
control_ts_28_b,1,test,P,177,4,820,550,R,0,NONE,0,1,224126,950
control_ts_28_b,1,test,P,178,4,820,550,P,1,<rshift>,1,1,225126,472
control_ts_28_b,1,test,P,179,3,620,550,P,1,<rshift>,1,1,226126,396
control_ts_28_b,1,test,P,180,2,820,350,P,1,<rshift>,1,1,227126,370
control_ts_28_b,1,test,P,181,3,620,550,P,1,<rshift>,1,1,228126,418
control_ts_28_b,1,test,P,182,4,820,550,P,1,<rshift>,1,1,229129,408
control_ts_28_b,1,test,P,183,2,820,350,P,1,<rshift>,1,1,230129,406
control_ts_28_b,1,test,P,184,1,620,350,R,0,<rshift>,1,0,231126,437
control_ts_28_b,1,test,P,185,4,820,550,R,0,NONE,0,1,232129,950
control_ts_28_b,1,test,P,186,4,820,550,P,1,<rshift>,1,1,233126,540
control_ts_28_b,1,test,P,187,2,820,350,P,1,<rshift>,1,1,234126,509
control_ts_28_b,1,test,P,188,4,820,550,P,1,<rshift>,1,1,235129,465
control_ts_28_b,1,test,P,189,3,620,550,R,0,NONE,0,1,236128,951
control_ts_28_b,1,test,P,190,1,620,350,P,1,<rshift>,1,1,237130,469
control_ts_28_b,1,test,P,191,3,620,550,P,1,<rshift>,1,1,238126,424
control_ts_28_b,1,test,P,192,3,620,550,P,1,<rshift>,1,1,239128,616
control_ts_28_b,1,test,P,193,4,820,550,P,1,<rshift>,1,1,240126,377
control_ts_28_b,1,test,P,194,1,620,350,P,1,<rshift>,1,1,241128,378
control_ts_28_b,1,test,P,195,1,620,350,R,0,NONE,0,1,242126,950
control_ts_28_b,1,test,P,196,4,820,550,P,1,<rshift>,1,1,243126,373
control_ts_28_b,1,test,P,197,1,620,350,P,1,<rshift>,1,1,244126,421
control_ts_28_b,1,test,P,198,2,820,350,P,1,<rshift>,1,1,245127,478
control_ts_28_b,1,test,P,199,4,820,550,P,1,<rshift>,1,1,246129,430
control_ts_28_b,1,test,P,200,1,620,350,P,1,<rshift>,1,1,247126,455
control_ts_28_b,1,test,P,201,4,820,550,P,1,<rshift>,1,1,248126,495
control_ts_28_b,1,test,P,202,3,620,550,P,1,<rshift>,1,1,249126,470
control_ts_28_b,1,test,P,203,1,620,350,P,1,<rshift>,1,1,250127,522
control_ts_28_b,1,test,P,204,1,620,350,P,1,<rshift>,1,1,251126,416
control_ts_28_b,1,test,P,205,4,820,550,P,1,<rshift>,1,1,252126,504
control_ts_28_b,1,test,P,206,2,820,350,P,1,<rshift>,1,1,253128,412
control_ts_28_b,1,test,P,207,3,620,550,P,1,<rshift>,1,1,254126,400
control_ts_28_b,1,test,P,208,1,620,350,P,1,<rshift>,1,1,255130,399
control_ts_28_b,1,test,P,209,2,820,350,P,1,<rshift>,1,1,256127,356
control_ts_28_b,1,test,P,210,3,620,550,R,0,NONE,0,1,257126,950
control_ts_28_b,1,test,P,211,4,820,550,P,1,<rshift>,1,1,258126,477
control_ts_28_b,1,test,P,212,4,820,550,R,0,NONE,0,1,259126,950
control_ts_28_b,1,test,P,213,4,820,550,P,1,<rshift>,1,1,260126,421
control_ts_28_b,1,test,P,214,1,620,350,P,1,<rshift>,1,1,261127,445
control_ts_28_b,1,test,P,215,1,620,350,P,1,<rshift>,1,1,262126,449
control_ts_28_b,1,test,P,216,3,620,550,R,0,NONE,0,1,263126,950
control_ts_28_b,1,test,P,217,2,820,350,P,1,<rshift>,1,1,264126,354
control_ts_28_b,1,test,P,218,3,620,550,R,0,<rshift>,1,0,265126,406
control_ts_28_b,1,test,P,219,4,820,550,P,1,<rshift>,1,1,266125,488
control_ts_28_b,1,test,P,220,4,820,550,P,1,<rshift>,1,1,267126,435
control_ts_28_b,1,test,P,221,3,620,550,P,1,<rshift>,1,1,268126,491
control_ts_28_b,1,test,P,222,1,620,350,R,0,NONE,0,1,269126,950
control_ts_28_b,1,test,P,223,3,620,550,R,0,NONE,0,1,270126,950
control_ts_28_b,1,test,P,224,1,620,350,P,1,<rshift>,1,1,271126,483
control_ts_28_b,1,test,P,225,1,620,350,P,1,<rshift>,1,1,272128,393
control_ts_28_b,1,test,P,226,1,620,350,P,1,<rshift>,1,1,273125,380
control_ts_28_b,1,test,P,227,2,820,350,P,1,<rshift>,1,1,274126,365
control_ts_28_b,1,test,P,228,1,620,350,P,1,<rshift>,1,1,275125,371
control_ts_28_b,1,test,P,229,3,620,550,R,0,NONE,0,1,276129,951
control_ts_28_b,1,test,P,230,4,820,550,R,0,NONE,0,1,277126,950
control_ts_28_b,1,test,P,231,1,620,350,P,1,<rshift>,1,1,278126,473
control_ts_28_b,1,test,P,232,4,820,550,P,1,<rshift>,1,1,279126,425
control_ts_28_b,1,test,P,233,4,820,550,P,1,<rshift>,1,1,280126,387
control_ts_28_b,1,test,P,234,3,620,550,P,1,<rshift>,1,1,281126,452
control_ts_28_b,1,test,P,235,1,620,350,P,1,<rshift>,1,1,282127,401
control_ts_28_b,1,test,P,236,3,620,550,R,0,NONE,0,1,283126,950
control_ts_28_b,1,test,P,237,2,820,350,P,1,<rshift>,1,1,284126,453
control_ts_28_b,1,test,P,238,1,620,350,P,1,<rshift>,1,1,285126,375
control_ts_28_b,1,test,P,239,2,820,350,P,1,<rshift>,1,1,286126,419
control_ts_28_b,1,test,P,240,4,820,550,P,1,<rshift>,1,1,287129,386
control_ts_28_b,1,test,P,241,3,620,550,P,1,<rshift>,1,1,288128,407
control_ts_28_b,1,test,P,242,1,620,350,P,1,<rshift>,1,1,289125,383
control_ts_28_b,1,test,P,243,3,620,550,R,0,<rshift>,1,0,290126,425
control_ts_28_b,1,test,P,244,2,820,350,P,1,<rshift>,1,1,291126,400
control_ts_28_b,1,test,P,245,1,620,350,P,1,<rshift>,1,1,292126,374
control_ts_28_b,1,test,P,246,3,620,550,P,1,<rshift>,1,1,293126,477
control_ts_28_b,1,test,P,247,4,820,550,P,1,<rshift>,1,1,294127,492
control_ts_28_b,1,test,P,248,4,820,550,P,1,<rshift>,1,1,295125,468
control_ts_28_b,1,test,P,249,3,620,550,P,1,<rshift>,1,1,296127,484
control_ts_28_b,1,test,P,250,3,620,550,P,1,<rshift>,1,1,297126,484
control_ts_28_b,1,test,P,251,3,620,550,P,1,<rshift>,1,1,298126,446
control_ts_28_b,1,test,P,252,2,820,350,R,0,NONE,0,1,299125,950
control_ts_28_b,1,test,P,253,2,820,350,P,1,<rshift>,1,1,300127,415
control_ts_28_b,1,test,P,254,4,820,550,P,1,<rshift>,1,1,301126,426
control_ts_28_b,1,test,P,255,4,820,550,P,1,<rshift>,1,1,302126,430
control_ts_28_b,1,test,P,256,1,620,350,R,0,NONE,0,1,303128,951
control_ts_28_b,1,test,P,257,3,620,550,R,0,NONE,0,1,304126,950
control_ts_28_b,1,test,P,258,1,620,350,P,1,<rshift>,1,1,305125,440
control_ts_28_b,1,test,P,259,4,820,550,P,1,<rshift>,1,1,306125,354
control_ts_28_b,1,test,P,260,2,820,350,P,1,<rshift>,1,1,307126,368
control_ts_28_b,1,test,P,261,1,620,350,P,1,<rshift>,1,1,308129,380
control_ts_28_b,1,test,P,262,3,620,550,P,1,<rshift>,1,1,309126,380
control_ts_28_b,1,test,P,263,3,620,550,P,1,<rshift>,1,1,310125,426
control_ts_28_b,1,test,P,264,3,620,550,P,1,<rshift>,1,1,311125,436
control_ts_28_b,1,test,P,265,1,620,350,P,1,<rshift>,1,1,312125,372
control_ts_28_b,1,test,P,266,4,820,550,P,1,<rshift>,1,1,313128,377
control_ts_28_b,1,test,P,267,2,820,350,P,1,<rshift>,1,1,314128,365
control_ts_28_b,1,test,P,268,2,820,350,P,1,<rshift>,1,1,315125,415
control_ts_28_b,1,test,P,269,1,620,350,P,1,<rshift>,1,1,316127,389
control_ts_28_b,1,test,P,270,1,620,350,P,1,<rshift>,1,1,317128,359
control_ts_28_b,1,test,P,271,2,820,350,R,0,<rshift>,1,0,318127,344
control_ts_28_b,1,test,P,272,3,620,550,R,0,NONE,0,1,319129,950
control_ts_28_b,1,test,P,273,3,620,550,P,1,<rshift>,1,1,320125,463
control_ts_28_b,1,test,P,274,2,820,350,P,1,<rshift>,1,1,321126,428
control_ts_28_b,1,test,P,275,3,620,550,P,1,<rshift>,1,1,322125,378
control_ts_28_b,1,test,P,276,4,820,550,R,0,<rshift>,1,0,323129,361
control_ts_28_b,1,test,P,277,1,620,350,P,1,<rshift>,1,1,324126,430
control_ts_28_b,1,test,P,278,2,820,350,P,1,<rshift>,1,1,325129,389
control_ts_28_b,1,test,P,279,2,820,350,P,1,<rshift>,1,1,326125,379
control_ts_28_b,1,test,P,280,4,820,550,P,1,<rshift>,1,1,327125,398
control_ts_28_b,1,test,P,281,2,820,350,P,1,<rshift>,1,1,328125,367
control_ts_28_b,1,test,P,282,4,820,550,P,1,<rshift>,1,1,329127,519
control_ts_28_b,1,test,P,283,1,620,350,R,0,NONE,0,1,330127,950
control_ts_28_b,1,test,P,284,2,820,350,P,1,<rshift>,1,1,331127,387
control_ts_28_b,1,test,P,285,2,820,350,P,1,<rshift>,1,1,332125,414
control_ts_28_b,1,test,P,286,4,820,550,P,1,<rshift>,1,1,333125,454
control_ts_28_b,1,test,P,287,1,620,350,R,0,NONE,0,1,334126,950
control_ts_28_b,1,test,P,288,2,820,350,P,1,<rshift>,1,1,335126,323
control_ts_28_b,1,test,P,289,1,620,350,R,0,NONE,0,1,336127,950
control_ts_28_b,1,test,P,290,4,820,550,P,1,<rshift>,1,1,337126,358
control_ts_28_b,1,test,P,291,3,620,550,P,1,<rshift>,1,1,338128,505
control_ts_28_b,1,test,P,292,3,620,550,R,0,<rshift>,1,0,339126,449
control_ts_28_b,1,test,P,293,3,620,550,P,1,<rshift>,1,1,340129,492
control_ts_28_b,1,test,P,294,2,820,350,P,1,<rshift>,1,1,341128,388
control_ts_28_b,1,test,P,295,3,620,550,R,0,NONE,0,1,342125,951
control_ts_28_b,1,test,P,296,4,820,550,P,1,<rshift>,1,1,343125,504
control_ts_28_b,1,test,P,297,1,620,350,P,1,<rshift>,1,1,344125,417
control_ts_28_b,1,test,P,298,1,620,350,P,1,<rshift>,1,1,345127,432
control_ts_28_b,1,test,P,299,2,820,350,P,1,<rshift>,1,1,346128,361
control_ts_28_b,1,test,P,300,1,620,350,P,1,<rshift>,1,1,347126,394
control_ts_28_b,2,practice,R,1,2,820,350,R,1,<rshift>,1,1,361923,416
control_ts_28_b,2,practice,R,2,1,620,350,R,1,<rshift>,1,1,362926,431
control_ts_28_b,2,practice,R,3,1,620,350,P,0,NONE,0,1,363923,950
control_ts_28_b,2,practice,R,4,4,820,550,R,1,<rshift>,1,1,364923,439
control_ts_28_b,2,practice,R,5,2,820,350,R,1,<rshift>,1,1,365923,389
control_ts_28_b,2,practice,R,6,1,620,350,R,1,<rshift>,1,1,366922,357
control_ts_28_b,2,practice,R,7,3,620,550,R,1,<rshift>,1,1,367924,344
control_ts_28_b,2,practice,R,8,4,820,550,R,1,<rshift>,1,1,368925,354
control_ts_28_b,2,practice,R,9,3,620,550,R,1,<rshift>,1,1,369923,379
control_ts_28_b,2,practice,R,10,4,820,550,P,0,<rshift>,1,0,370925,352
control_ts_28_b,3,test,R,1,4,820,550,R,1,<rshift>,1,1,378324,483
control_ts_28_b,3,test,R,2,4,820,550,R,1,<rshift>,1,1,379324,391
control_ts_28_b,3,test,R,3,4,820,550,R,1,<rshift>,1,1,380326,384
control_ts_28_b,3,test,R,4,3,620,550,R,1,<rshift>,1,1,381327,392
control_ts_28_b,3,test,R,5,2,820,350,P,0,NONE,0,1,382325,950
control_ts_28_b,3,test,R,6,1,620,350,R,1,<rshift>,1,1,383328,383
control_ts_28_b,3,test,R,7,1,620,350,R,1,<rshift>,1,1,384325,425
control_ts_28_b,3,test,R,8,3,620,550,R,1,<rshift>,1,1,385325,439
control_ts_28_b,3,test,R,9,1,620,350,P,0,NONE,0,1,386326,951
control_ts_28_b,3,test,R,10,3,620,550,P,0,<rshift>,1,0,387325,486
control_ts_28_b,3,test,R,11,3,620,550,R,1,<rshift>,1,1,388325,471
control_ts_28_b,3,test,R,12,4,820,550,R,1,<rshift>,1,1,389328,439
control_ts_28_b,3,test,R,13,2,820,350,R,1,<rshift>,1,1,390328,419
control_ts_28_b,3,test,R,14,2,820,350,R,1,<rshift>,1,1,391324,386
control_ts_28_b,3,test,R,15,3,620,550,R,1,<rshift>,1,1,392327,417
control_ts_28_b,3,test,R,16,3,620,550,R,1,<rshift>,1,1,393324,403
control_ts_28_b,3,test,R,17,3,620,550,R,1,<rshift>,1,1,394326,418
control_ts_28_b,3,test,R,18,3,620,550,P,0,NONE,0,1,395324,951
control_ts_28_b,3,test,R,19,1,620,350,R,1,<rshift>,1,1,396325,505
control_ts_28_b,3,test,R,20,2,820,350,R,1,<rshift>,1,1,397325,435
control_ts_28_b,3,test,R,21,1,620,350,R,1,<rshift>,1,1,398325,385
control_ts_28_b,3,test,R,22,2,820,350,R,1,<rshift>,1,1,399325,349
control_ts_28_b,3,test,R,23,1,620,350,R,1,<rshift>,1,1,400325,323
control_ts_28_b,3,test,R,24,3,620,550,P,0,NONE,0,1,401325,950
control_ts_28_b,3,test,R,25,1,620,350,R,1,<rshift>,1,1,402325,406
control_ts_28_b,3,test,R,26,1,620,350,R,1,<rshift>,1,1,403325,433
control_ts_28_b,3,test,R,27,4,820,550,R,1,<rshift>,1,1,404325,389
control_ts_28_b,3,test,R,28,3,620,550,R,1,<rshift>,1,1,405325,441
control_ts_28_b,3,test,R,29,2,820,350,P,0,<rshift>,1,0,406325,354
control_ts_28_b,3,test,R,30,1,620,350,P,0,NONE,0,1,407328,951
control_ts_28_b,3,test,R,31,3,620,550,R,1,<rshift>,1,1,408326,378
control_ts_28_b,3,test,R,32,4,820,550,R,1,<rshift>,1,1,409324,413
control_ts_28_b,3,test,R,33,4,820,550,P,0,NONE,0,1,410325,950
control_ts_28_b,3,test,R,34,3,620,550,R,1,<rshift>,1,1,411326,394
control_ts_28_b,3,test,R,35,1,620,350,R,1,<rshift>,1,1,412325,412
control_ts_28_b,3,test,R,36,2,820,350,P,0,NONE,0,1,413325,950
control_ts_28_b,3,test,R,37,3,620,550,R,1,<rshift>,1,1,414325,379
control_ts_28_b,3,test,R,38,3,620,550,R,1,<rshift>,1,1,415325,455
control_ts_28_b,3,test,R,39,2,820,350,R,1,<rshift>,1,1,416325,443
control_ts_28_b,3,test,R,40,3,620,550,R,1,<rshift>,1,1,417328,409
control_ts_28_b,3,test,R,41,3,620,550,R,1,<rshift>,1,1,418326,403
control_ts_28_b,3,test,R,42,1,620,350,R,1,<rshift>,1,1,419328,387
control_ts_28_b,3,test,R,43,2,820,350,R,1,<rshift>,1,1,420324,358
control_ts_28_b,3,test,R,44,1,620,350,R,1,<rshift>,1,1,421325,432
control_ts_28_b,3,test,R,45,3,620,550,P,0,NONE,0,1,422325,950
control_ts_28_b,3,test,R,46,1,620,350,R,1,<rshift>,1,1,423325,490
control_ts_28_b,3,test,R,47,3,620,550,R,1,<rshift>,1,1,424325,464
control_ts_28_b,3,test,R,48,4,820,550,R,1,<rshift>,1,1,425325,380
control_ts_28_b,3,test,R,49,1,620,350,P,0,NONE,0,1,426326,950
control_ts_28_b,3,test,R,50,4,820,550,P,0,NONE,0,1,427324,951
control_ts_28_b,3,test,R,51,3,620,550,R,1,<rshift>,1,1,428325,477
control_ts_28_b,3,test,R,52,4,820,550,R,1,<rshift>,1,1,429324,401
control_ts_28_b,3,test,R,53,2,820,350,R,1,<rshift>,1,1,430324,377
control_ts_28_b,3,test,R,54,1,620,350,R,1,<rshift>,1,1,431325,401
control_ts_28_b,3,test,R,55,4,820,550,R,1,<rshift>,1,1,432325,332
control_ts_28_b,3,test,R,56,2,820,350,R,1,<rshift>,1,1,433326,363
control_ts_28_b,3,test,R,57,2,820,350,R,1,<rshift>,1,1,434325,357
control_ts_28_b,3,test,R,58,2,820,350,R,1,<rshift>,1,1,435325,349
control_ts_28_b,3,test,R,59,1,620,350,R,1,<rshift>,1,1,436324,320
control_ts_28_b,3,test,R,60,2,820,350,P,0,<rshift>,1,0,437327,300
control_ts_28_b,3,test,R,61,2,820,350,R,1,<rshift>,1,1,438327,417
control_ts_28_b,3,test,R,62,1,620,350,R,1,<rshift>,1,1,439326,357
control_ts_28_b,3,test,R,63,2,820,350,R,1,<rshift>,1,1,440326,397
control_ts_28_b,3,test,R,64,2,820,350,R,1,<rshift>,1,1,441328,373
control_ts_28_b,3,test,R,65,2,820,350,R,1,<rshift>,1,1,442325,352
control_ts_28_b,3,test,R,66,3,620,550,R,1,<rshift>,1,1,443327,458
control_ts_28_b,3,test,R,67,4,820,550,R,1,<rshift>,1,1,444327,368
control_ts_28_b,3,test,R,68,1,620,350,R,1,<rshift>,1,1,445327,322
control_ts_28_b,3,test,R,69,2,820,350,R,1,<rshift>,1,1,446327,307
control_ts_28_b,3,test,R,70,1,620,350,R,1,<rshift>,1,1,447327,323
control_ts_28_b,3,test,R,71,1,620,350,R,1,<rshift>,1,1,448325,352
control_ts_28_b,3,test,R,72,2,820,350,R,1,<rshift>,1,1,449325,292
control_ts_28_b,3,test,R,73,1,620,350,R,1,<rshift>,1,1,450325,322
control_ts_28_b,3,test,R,74,1,620,350,R,1,<rshift>,1,1,451327,403
control_ts_28_b,3,test,R,75,2,820,350,R,1,<rshift>,1,1,452326,280
control_ts_28_b,3,test,R,76,1,620,350,R,1,<rshift>,1,1,453327,360
control_ts_28_b,3,test,R,77,3,620,550,R,1,<rshift>,1,1,454325,323
control_ts_28_b,3,test,R,78,4,820,550,R,1,<rshift>,1,1,455328,331
control_ts_28_b,3,test,R,79,4,820,550,R,1,<rshift>,1,1,456325,403
control_ts_28_b,3,test,R,80,2,820,350,R,1,<rshift>,1,1,457326,344
control_ts_28_b,3,test,R,81,4,820,550,R,1,<rshift>,1,1,458327,376
control_ts_28_b,3,test,R,82,3,620,550,P,0,NONE,0,1,459325,950
control_ts_28_b,3,test,R,83,3,620,550,P,0,NONE,0,1,460327,951
control_ts_28_b,3,test,R,84,1,620,350,P,0,NONE,0,1,461325,950
control_ts_28_b,3,test,R,85,1,620,350,R,1,<rshift>,1,1,462328,453
control_ts_28_b,3,test,R,86,1,620,350,R,1,<rshift>,1,1,463325,331
control_ts_28_b,3,test,R,87,2,820,350,P,0,<rshift>,1,0,464324,332
control_ts_28_b,3,test,R,88,4,820,550,R,1,<rshift>,1,1,465325,311
control_ts_28_b,3,test,R,89,4,820,550,R,1,<rshift>,1,1,466325,395
control_ts_28_b,3,test,R,90,2,820,350,R,1,<rshift>,1,1,467327,383
control_ts_28_b,3,test,R,91,1,620,350,P,0,NONE,0,1,468325,950
control_ts_28_b,3,test,R,92,1,620,350,P,0,NONE,0,1,469328,950
control_ts_28_b,3,test,R,93,4,820,550,P,0,NONE,0,1,470325,950
control_ts_28_b,3,test,R,94,1,620,350,R,1,<rshift>,1,1,471325,465
control_ts_28_b,3,test,R,95,1,620,350,R,1,<rshift>,1,1,472328,349
control_ts_28_b,3,test,R,96,1,620,350,R,1,<rshift>,1,1,473325,351
control_ts_28_b,3,test,R,97,4,820,550,P,0,NONE,0,1,474325,950
control_ts_28_b,3,test,R,98,4,820,550,P,0,NONE,0,1,475325,950
control_ts_28_b,3,test,R,99,1,620,350,P,0,<rshift>,1,0,476327,333
control_ts_28_b,3,test,R,100,2,820,350,R,1,<rshift>,1,1,477327,457
control_ts_28_b,3,test,R,101,3,620,550,R,1,<rshift>,1,1,478325,381
control_ts_28_b,3,test,R,102,3,620,550,R,1,<rshift>,1,1,479326,435
control_ts_28_b,3,test,R,103,2,820,350,R,1,<rshift>,1,1,480325,365
control_ts_28_b,3,test,R,104,2,820,350,R,1,<rshift>,1,1,481328,410
control_ts_28_b,3,test,R,105,1,620,350,R,1,<rshift>,1,1,482325,378
control_ts_28_b,3,test,R,106,4,820,550,R,1,<rshift>,1,1,483326,311
control_ts_28_b,3,test,R,107,2,820,350,R,1,<rshift>,1,1,484325,397
control_ts_28_b,3,test,R,108,1,620,350,R,1,<rshift>,1,1,485324,344
control_ts_28_b,3,test,R,109,1,620,350,R,1,<rshift>,1,1,486324,403
control_ts_28_b,3,test,R,110,3,620,550,P,0,NONE,0,1,487324,951
control_ts_28_b,3,test,R,111,2,820,350,R,1,<rshift>,1,1,488326,365
control_ts_28_b,3,test,R,112,2,820,350,R,1,<rshift>,1,1,489325,414
control_ts_28_b,3,test,R,113,2,820,350,R,1,<rshift>,1,1,490325,383
control_ts_28_b,3,test,R,114,2,820,350,R,1,<rshift>,1,1,491328,362
control_ts_28_b,3,test,R,115,1,620,350,P,0,NONE,0,1,492324,951
control_ts_28_b,3,test,R,116,1,620,350,R,1,<rshift>,1,1,493325,394
control_ts_28_b,3,test,R,117,4,820,550,R,1,<rshift>,1,1,494325,384
control_ts_28_b,3,test,R,118,3,620,550,R,1,<rshift>,1,1,495325,384
control_ts_28_b,3,test,R,119,3,620,550,R,1,<rshift>,1,1,496325,453
control_ts_28_b,3,test,R,120,4,820,550,R,1,<rshift>,1,1,497325,337
control_ts_28_b,3,test,R,121,4,820,550,R,1,<rshift>,1,1,498328,371
control_ts_28_b,3,test,R,122,4,820,550,R,1,<rshift>,1,1,499325,401
control_ts_28_b,3,test,R,123,1,620,350,R,1,<rshift>,1,1,500325,370
control_ts_28_b,3,test,R,124,1,620,350,R,1,<rshift>,1,1,501326,368
control_ts_28_b,3,test,R,125,1,620,350,R,1,<rshift>,1,1,502328,299
control_ts_28_b,3,test,R,126,3,620,550,R,1,<rshift>,1,1,503325,393
control_ts_28_b,3,test,R,127,2,820,350,R,1,<rshift>,1,1,504325,363
control_ts_28_b,3,test,R,128,3,620,550,R,1,<rshift>,1,1,505325,319
control_ts_28_b,3,test,R,129,2,820,350,R,1,<rshift>,1,1,506325,278
control_ts_28_b,3,test,R,130,3,620,550,R,1,<rshift>,1,1,507325,307
control_ts_28_b,3,test,R,131,3,620,550,R,1,<rshift>,1,1,508325,360
control_ts_28_b,3,test,R,132,3,620,550,R,1,<rshift>,1,1,509325,371
control_ts_28_b,3,test,R,133,2,820,350,P,0,<rshift>,1,0,510327,462
control_ts_28_b,3,test,R,134,3,620,550,R,1,<rshift>,1,1,511328,346
control_ts_28_b,3,test,R,135,3,620,550,R,1,<rshift>,1,1,512325,396
control_ts_28_b,3,test,R,136,3,620,550,P,0,<rshift>,1,0,513325,370
control_ts_28_b,3,test,R,137,4,820,550,R,1,<rshift>,1,1,514326,385
control_ts_28_b,3,test,R,138,1,620,350,R,1,<rshift>,1,1,515327,393
control_ts_28_b,3,test,R,139,3,620,550,R,1,<rshift>,1,1,516326,385
control_ts_28_b,3,test,R,140,1,620,350,R,1,<rshift>,1,1,517325,389
control_ts_28_b,3,test,R,141,2,820,350,R,1,<rshift>,1,1,518325,351
control_ts_28_b,3,test,R,142,4,820,550,R,1,<rshift>,1,1,519327,403
control_ts_28_b,3,test,R,143,2,820,350,R,1,<rshift>,1,1,520324,403
control_ts_28_b,3,test,R,144,2,820,350,P,0,NONE,0,1,521325,950
control_ts_28_b,3,test,R,145,2,820,350,P,0,NONE,0,1,522325,950
control_ts_28_b,3,test,R,146,3,620,550,R,1,<rshift>,1,1,523325,396
control_ts_28_b,3,test,R,147,1,620,350,R,1,<rshift>,1,1,524325,370
control_ts_28_b,3,test,R,148,1,620,350,R,1,<rshift>,1,1,525325,455
control_ts_28_b,3,test,R,149,2,820,350,R,1,<rshift>,1,1,526326,365
control_ts_28_b,3,test,R,150,4,820,550,R,1,<rshift>,1,1,527327,359
control_ts_28_b,3,test,R,151,4,820,550,P,0,NONE,0,1,528325,950
control_ts_28_b,3,test,R,152,4,820,550,R,1,<rshift>,1,1,529325,434
control_ts_28_b,3,test,R,153,4,820,550,R,1,<rshift>,1,1,530326,437
control_ts_28_b,3,test,R,154,3,620,550,R,1,<rshift>,1,1,531328,351
control_ts_28_b,3,test,R,155,3,620,550,P,0,NONE,0,1,532327,950
control_ts_28_b,3,test,R,156,4,820,550,R,1,<rshift>,1,1,533324,399
control_ts_28_b,3,test,R,157,2,820,350,R,1,<rshift>,1,1,534324,388
control_ts_28_b,3,test,R,158,4,820,550,R,1,<rshift>,1,1,535325,415
control_ts_28_b,3,test,R,159,3,620,550,R,1,<rshift>,1,1,536326,496
control_ts_28_b,3,test,R,160,3,620,550,R,1,<rshift>,1,1,537325,432
control_ts_28_b,3,test,R,161,1,620,350,R,1,<rshift>,1,1,538328,447
control_ts_28_b,3,test,R,162,3,620,550,R,1,<rshift>,1,1,539328,428
control_ts_28_b,3,test,R,163,1,620,350,R,1,<rshift>,1,1,540324,346
control_ts_28_b,3,test,R,164,3,620,550,R,1,<rshift>,1,1,541324,320
control_ts_28_b,3,test,R,165,2,820,350,R,1,<rshift>,1,1,542325,338
control_ts_28_b,3,test,R,166,2,820,350,P,0,<rshift>,1,0,543325,366
control_ts_28_b,3,test,R,167,4,820,550,R,1,<rshift>,1,1,544325,411
control_ts_28_b,3,test,R,168,3,620,550,R,1,<rshift>,1,1,545327,417
control_ts_28_b,3,test,R,169,3,620,550,R,1,<rshift>,1,1,546325,488
control_ts_28_b,3,test,R,170,4,820,550,R,1,<rshift>,1,1,547326,393
control_ts_28_b,3,test,R,171,1,620,350,R,1,<rshift>,1,1,548325,353
control_ts_28_b,3,test,R,172,2,820,350,R,1,<rshift>,1,1,549326,378
control_ts_28_b,3,test,R,173,3,620,550,P,0,NONE,0,1,550324,950
control_ts_28_b,3,test,R,174,2,820,350,R,1,<rshift>,1,1,551325,473
control_ts_28_b,3,test,R,175,1,620,350,R,1,<rshift>,1,1,552326,434
control_ts_28_b,3,test,R,176,2,820,350,R,1,<rshift>,1,1,553324,386
control_ts_28_b,3,test,R,177,2,820,350,R,1,<rshift>,1,1,554324,390
control_ts_28_b,3,test,R,178,1,620,350,R,1,<rshift>,1,1,555328,371
control_ts_28_b,3,test,R,179,3,620,550,R,1,<rshift>,1,1,556324,361
control_ts_28_b,3,test,R,180,3,620,550,P,0,<rshift>,1,0,557325,380
control_ts_28_b,3,test,R,181,1,620,350,P,0,<rshift>,1,0,558324,427
control_ts_28_b,3,test,R,182,2,820,350,R,1,<rshift>,1,1,559325,439
control_ts_28_b,3,test,R,183,2,820,350,R,1,<rshift>,1,1,560325,415
control_ts_28_b,3,test,R,184,2,820,350,R,1,<rshift>,1,1,561325,357
control_ts_28_b,3,test,R,185,4,820,550,R,1,<rshift>,1,1,562324,366
control_ts_28_b,3,test,R,186,2,820,350,R,1,<rshift>,1,1,563325,394
control_ts_28_b,3,test,R,187,4,820,550,R,1,<rshift>,1,1,564325,418
control_ts_28_b,3,test,R,188,4,820,550,R,1,<rshift>,1,1,565326,379
control_ts_28_b,3,test,R,189,4,820,550,P,0,<rshift>,1,0,566325,366
control_ts_28_b,3,test,R,190,2,820,350,R,1,<rshift>,1,1,567328,418
control_ts_28_b,3,test,R,191,4,820,550,P,0,NONE,0,1,568325,950
control_ts_28_b,3,test,R,192,3,620,550,R,1,<rshift>,1,1,569324,510
control_ts_28_b,3,test,R,193,1,620,350,P,0,NONE,0,1,570328,950
control_ts_28_b,3,test,R,194,4,820,550,R,1,<rshift>,1,1,571325,448
control_ts_28_b,3,test,R,195,2,820,350,R,1,<rshift>,1,1,572325,409
control_ts_28_b,3,test,R,196,2,820,350,R,1,<rshift>,1,1,573325,407
control_ts_28_b,3,test,R,197,2,820,350,R,1,<rshift>,1,1,574325,370
control_ts_28_b,3,test,R,198,4,820,550,R,1,<rshift>,1,1,575325,419
control_ts_28_b,3,test,R,199,4,820,550,R,1,<rshift>,1,1,576325,361
control_ts_28_b,3,test,R,200,4,820,550,R,1,<rshift>,1,1,577325,348
control_ts_28_b,3,test,R,201,3,620,550,P,0,NONE,0,1,578325,950
control_ts_28_b,3,test,R,202,2,820,350,R,1,<rshift>,1,1,579325,427
control_ts_28_b,3,test,R,203,1,620,350,R,1,<rshift>,1,1,580325,408
control_ts_28_b,3,test,R,204,1,620,350,P,0,NONE,0,1,581328,950
control_ts_28_b,3,test,R,205,4,820,550,R,1,<rshift>,1,1,582325,340
control_ts_28_b,3,test,R,206,3,620,550,P,0,<rshift>,1,0,583327,343
control_ts_28_b,3,test,R,207,2,820,350,R,1,<rshift>,1,1,584324,367
control_ts_28_b,3,test,R,208,1,620,350,R,1,<rshift>,1,1,585324,472
control_ts_28_b,3,test,R,209,4,820,550,R,1,<rshift>,1,1,586325,453
control_ts_28_b,3,test,R,210,3,620,550,R,1,<rshift>,1,1,587328,387
control_ts_28_b,3,test,R,211,2,820,350,R,1,<rshift>,1,1,588325,427
control_ts_28_b,3,test,R,212,3,620,550,R,1,<rshift>,1,1,589325,415
control_ts_28_b,3,test,R,213,1,620,350,R,1,<rshift>,1,1,590325,497
control_ts_28_b,3,test,R,214,2,820,350,P,0,NONE,0,1,591325,950
control_ts_28_b,3,test,R,215,1,620,350,R,1,<rshift>,1,1,592325,519
control_ts_28_b,3,test,R,216,4,820,550,R,1,<rshift>,1,1,593325,480
control_ts_28_b,3,test,R,217,1,620,350,R,1,<rshift>,1,1,594325,587
control_ts_28_b,3,test,R,218,2,820,350,R,1,<rshift>,1,1,595325,331
control_ts_28_b,3,test,R,219,4,820,550,R,1,<rshift>,1,1,596325,349
control_ts_28_b,3,test,R,220,3,620,550,R,1,<rshift>,1,1,597324,367
control_ts_28_b,3,test,R,221,2,820,350,P,0,NONE,0,1,598326,950
control_ts_28_b,3,test,R,222,3,620,550,P,0,<rshift>,1,0,599325,324
control_ts_28_b,3,test,R,223,4,820,550,R,1,<rshift>,1,1,600325,384
control_ts_28_b,3,test,R,224,2,820,350,R,1,<rshift>,1,1,601328,469
control_ts_28_b,3,test,R,225,1,620,350,R,1,<rshift>,1,1,602324,409
control_ts_28_b,3,test,R,226,4,820,550,P,0,<rshift>,1,0,603325,367
control_ts_28_b,3,test,R,227,1,620,350,R,1,<rshift>,1,1,604324,450
control_ts_28_b,3,test,R,228,4,820,550,R,1,<rshift>,1,1,605325,408
control_ts_28_b,3,test,R,229,3,620,550,P,0,NONE,0,1,606325,950
control_ts_28_b,3,test,R,230,3,620,550,R,1,<rshift>,1,1,607326,525
control_ts_28_b,3,test,R,231,1,620,350,P,0,NONE,0,1,608328,951
control_ts_28_b,3,test,R,232,3,620,550,R,1,<rshift>,1,1,609325,425
control_ts_28_b,3,test,R,233,3,620,550,R,1,<rshift>,1,1,610326,461
control_ts_28_b,3,test,R,234,2,820,350,R,1,<rshift>,1,1,611325,573
control_ts_28_b,3,test,R,235,4,820,550,P,0,NONE,0,1,612324,951
control_ts_28_b,3,test,R,236,3,620,550,R,1,<rshift>,1,1,613324,392
control_ts_28_b,3,test,R,237,2,820,350,R,1,<rshift>,1,1,614325,360
control_ts_28_b,3,test,R,238,2,820,350,R,1,<rshift>,1,1,615325,372
control_ts_28_b,3,test,R,239,4,820,550,R,1,<rshift>,1,1,616325,427
control_ts_28_b,3,test,R,240,3,620,550,R,1,<rshift>,1,1,617325,368
control_ts_28_b,3,test,R,241,4,820,550,R,1,<rshift>,1,1,618327,367
control_ts_28_b,3,test,R,242,1,620,350,R,1,<rshift>,1,1,619325,445
control_ts_28_b,3,test,R,243,3,620,550,R,1,<rshift>,1,1,620328,410
control_ts_28_b,3,test,R,244,1,620,350,R,1,<rshift>,1,1,621327,360
control_ts_28_b,3,test,R,245,2,820,350,P,0,NONE,0,1,622325,951
control_ts_28_b,3,test,R,246,3,620,550,R,1,<rshift>,1,1,623326,351
control_ts_28_b,3,test,R,247,4,820,550,R,1,<rshift>,1,1,624324,369
control_ts_28_b,3,test,R,248,4,820,550,R,1,<rshift>,1,1,625327,395
control_ts_28_b,3,test,R,249,3,620,550,R,1,<rshift>,1,1,626327,364
control_ts_28_b,3,test,R,250,4,820,550,R,1,<rshift>,1,1,627325,343
control_ts_28_b,3,test,R,251,1,620,350,P,0,<rshift>,1,0,628327,387
control_ts_28_b,3,test,R,252,2,820,350,R,1,<rshift>,1,1,629327,419
control_ts_28_b,3,test,R,253,4,820,550,P,0,NONE,0,1,630325,950
control_ts_28_b,3,test,R,254,2,820,350,P,0,NONE,0,1,631325,950
control_ts_28_b,3,test,R,255,4,820,550,R,1,<rshift>,1,1,632324,448
control_ts_28_b,3,test,R,256,4,820,550,R,1,<rshift>,1,1,633327,437
control_ts_28_b,3,test,R,257,3,620,550,R,1,<rshift>,1,1,634327,396
control_ts_28_b,3,test,R,258,2,820,350,P,0,NONE,0,1,635325,950
control_ts_28_b,3,test,R,259,3,620,550,R,1,<rshift>,1,1,636328,367
control_ts_28_b,3,test,R,260,3,620,550,R,1,<rshift>,1,1,637325,373
control_ts_28_b,3,test,R,261,4,820,550,R,1,<rshift>,1,1,638325,336
control_ts_28_b,3,test,R,262,1,620,350,P,0,<rshift>,1,0,639324,356
control_ts_28_b,3,test,R,263,1,620,350,P,0,NONE,0,1,640324,951
control_ts_28_b,3,test,R,264,4,820,550,R,1,<rshift>,1,1,641325,365
control_ts_28_b,3,test,R,265,2,820,350,P,0,NONE,0,1,642325,950
control_ts_28_b,3,test,R,266,2,820,350,R,1,<rshift>,1,1,643325,542
control_ts_28_b,3,test,R,267,2,820,350,R,1,<rshift>,1,1,644327,379
control_ts_28_b,3,test,R,268,3,620,550,P,0,<rshift>,1,0,645324,356
control_ts_28_b,3,test,R,269,4,820,550,R,1,<rshift>,1,1,646324,465
control_ts_28_b,3,test,R,270,3,620,550,R,1,<rshift>,1,1,647327,461
control_ts_28_b,3,test,R,271,3,620,550,R,1,<rshift>,1,1,648325,399
control_ts_28_b,3,test,R,272,1,620,350,R,1,<rshift>,1,1,649326,532
control_ts_28_b,3,test,R,273,3,620,550,R,1,<rshift>,1,1,650325,515
control_ts_28_b,3,test,R,274,1,620,350,R,1,<rshift>,1,1,651325,422
control_ts_28_b,3,test,R,275,4,820,550,R,1,<rshift>,1,1,652325,359
control_ts_28_b,3,test,R,276,2,820,350,R,1,<rshift>,1,1,653324,326
control_ts_28_b,3,test,R,277,4,820,550,R,1,<rshift>,1,1,654325,339
control_ts_28_b,3,test,R,278,4,820,550,R,1,<rshift>,1,1,655326,397
control_ts_28_b,3,test,R,279,1,620,350,R,1,<rshift>,1,1,656325,416
control_ts_28_b,3,test,R,280,3,620,550,R,1,<rshift>,1,1,657325,415
control_ts_28_b,3,test,R,281,3,620,550,R,1,<rshift>,1,1,658325,469
control_ts_28_b,3,test,R,282,4,820,550,R,1,<rshift>,1,1,659325,493
control_ts_28_b,3,test,R,283,3,620,550,R,1,<rshift>,1,1,660325,432
control_ts_28_b,3,test,R,284,4,820,550,R,1,<rshift>,1,1,661325,329
control_ts_28_b,3,test,R,285,1,620,350,R,1,<rshift>,1,1,662325,299
control_ts_28_b,3,test,R,286,4,820,550,P,0,<rshift>,1,0,663325,356
control_ts_28_b,3,test,R,287,4,820,550,R,1,<rshift>,1,1,664325,370
control_ts_28_b,3,test,R,288,2,820,350,P,0,NONE,0,1,665325,950
control_ts_28_b,3,test,R,289,2,820,350,R,1,<rshift>,1,1,666325,378
control_ts_28_b,3,test,R,290,3,620,550,R,1,<rshift>,1,1,667324,363
control_ts_28_b,3,test,R,291,3,620,550,P,0,NONE,0,1,668325,950
control_ts_28_b,3,test,R,292,1,620,350,R,1,<rshift>,1,1,669324,358
control_ts_28_b,3,test,R,293,2,820,350,R,1,<rshift>,1,1,670325,467
control_ts_28_b,3,test,R,294,3,620,550,R,1,<rshift>,1,1,671328,398
control_ts_28_b,3,test,R,295,3,620,550,R,1,<rshift>,1,1,672325,404
control_ts_28_b,3,test,R,296,3,620,550,R,1,<rshift>,1,1,673325,393
control_ts_28_b,3,test,R,297,1,620,350,R,1,<rshift>,1,1,674325,387
control_ts_28_b,3,test,R,298,2,820,350,R,1,<rshift>,1,1,675325,366
control_ts_28_b,3,test,R,299,1,620,350,R,1,<rshift>,1,1,676325,406
control_ts_28_b,3,test,R,300,3,620,550,R,1,<rshift>,1,1,677324,451
