subnum,block,type,correctresponse,trial,choice,x,y,stim,present,response,responded,corr,starttime,rt
CONTROL_TS_8_A,0,practice,P,1,1,656,391,P,1,<rshift>,1,1,40026,753
CONTROL_TS_8_A,0,practice,P,2,1,656,391,R,0,NONE,0,1,41022,950
CONTROL_TS_8_A,0,practice,P,3,4,856,591,P,1,<rshift>,1,1,42021,533
CONTROL_TS_8_A,0,practice,P,4,3,656,591,P,1,<rshift>,1,1,43022,414
CONTROL_TS_8_A,0,practice,P,5,3,656,591,P,1,<rshift>,1,1,44021,406
CONTROL_TS_8_A,0,practice,P,6,1,656,391,P,1,<rshift>,1,1,45021,370
CONTROL_TS_8_A,0,practice,P,7,2,856,391,P,1,<rshift>,1,1,46021,403
CONTROL_TS_8_A,0,practice,P,8,3,656,591,P,1,<rshift>,1,1,47022,381
CONTROL_TS_8_A,0,practice,P,9,1,656,391,R,0,<rshift>,1,0,48021,335
CONTROL_TS_8_A,0,practice,P,10,2,856,391,P,1,<rshift>,1,1,49438,456
CONTROL_TS_8_A,1,test,P,1,2,856,391,P,1,<rshift>,1,1,53784,572
CONTROL_TS_8_A,1,test,P,2,1,656,391,P,1,<rshift>,1,1,54783,413
CONTROL_TS_8_A,1,test,P,3,4,856,591,P,1,<rshift>,1,1,55783,439
CONTROL_TS_8_A,1,test,P,4,4,856,591,R,0,NONE,0,1,56783,950
CONTROL_TS_8_A,1,test,P,5,2,856,391,R,0,NONE,0,1,57782,950
CONTROL_TS_8_A,1,test,P,6,1,656,391,P,1,<rshift>,1,1,58783,325
CONTROL_TS_8_A,1,test,P,7,4,856,591,R,0,<rshift>,1,0,59783,360
CONTROL_TS_8_A,1,test,P,8,4,856,591,P,1,<rshift>,1,1,60783,435
CONTROL_TS_8_A,1,test,P,9,3,656,591,P,1,<rshift>,1,1,61783,459
CONTROL_TS_8_A,1,test,P,10,2,856,391,R,0,NONE,0,1,62783,950
CONTROL_TS_8_A,1,test,P,11,4,856,591,P,1,<rshift>,1,1,63783,614
CONTROL_TS_8_A,1,test,P,12,1,656,391,P,1,<rshift>,1,1,64783,377
CONTROL_TS_8_A,1,test,P,13,2,856,391,R,0,NONE,0,1,65783,950
CONTROL_TS_8_A,1,test,P,14,3,656,591,P,1,<rshift>,1,1,66783,334
CONTROL_TS_8_A,1,test,P,15,1,656,391,P,1,<rshift>,1,1,67783,414
CONTROL_TS_8_A,1,test,P,16,1,656,391,P,1,<rshift>,1,1,68783,364
CONTROL_TS_8_A,1,test,P,17,1,656,391,P,1,<rshift>,1,1,69783,335
CONTROL_TS_8_A,1,test,P,18,1,656,391,P,1,<rshift>,1,1,70783,320
CONTROL_TS_8_A,1,test,P,19,4,856,591,P,1,<rshift>,1,1,71783,606
CONTROL_TS_8_A,1,test,P,20,2,856,391,P,1,<rshift>,1,1,72783,399
CONTROL_TS_8_A,1,test,P,21,3,656,591,P,1,<rshift>,1,1,73783,395
CONTROL_TS_8_A,1,test,P,22,1,656,391,P,1,<rshift>,1,1,74783,350
CONTROL_TS_8_A,1,test,P,23,1,656,391,P,1,<rshift>,1,1,75784,366
CONTROL_TS_8_A,1,test,P,24,2,856,391,P,1,<rshift>,1,1,76783,378
CONTROL_TS_8_A,1,test,P,25,2,856,391,P,1,<rshift>,1,1,77783,411
CONTROL_TS_8_A,1,test,P,26,1,656,391,P,1,<rshift>,1,1,78783,343
CONTROL_TS_8_A,1,test,P,27,1,656,391,P,1,<rshift>,1,1,79783,310
CONTROL_TS_8_A,1,test,P,28,3,656,591,P,1,<rshift>,1,1,80783,536
CONTROL_TS_8_A,1,test,P,29,1,656,391,P,1,<rshift>,1,1,81783,432
CONTROL_TS_8_A,1,test,P,30,3,656,591,R,0,NONE,0,1,82783,950
CONTROL_TS_8_A,1,test,P,31,3,656,591,P,1,<rshift>,1,1,83783,450
CONTROL_TS_8_A,1,test,P,32,1,656,391,P,1,<rshift>,1,1,84783,347
CONTROL_TS_8_A,1,test,P,33,3,656,591,P,1,<rshift>,1,1,85783,359
CONTROL_TS_8_A,1,test,P,34,2,856,391,P,1,<rshift>,1,1,86783,288
CONTROL_TS_8_A,1,test,P,35,1,656,391,P,1,<rshift>,1,1,87783,342
CONTROL_TS_8_A,1,test,P,36,3,656,591,P,1,<rshift>,1,1,88783,356
CONTROL_TS_8_A,1,test,P,37,1,656,391,R,0,NONE,0,1,89783,950
CONTROL_TS_8_A,1,test,P,38,1,656,391,R,0,<rshift>,1,0,90783,392
CONTROL_TS_8_A,1,test,P,39,4,856,591,P,1,<rshift>,1,1,91783,359
CONTROL_TS_8_A,1,test,P,40,3,656,591,P,1,<rshift>,1,1,92783,467
CONTROL_TS_8_A,1,test,P,41,4,856,591,P,1,<rshift>,1,1,93783,469
CONTROL_TS_8_A,1,test,P,42,3,656,591,P,1,<rshift>,1,1,94783,396
CONTROL_TS_8_A,1,test,P,43,1,656,391,P,1,<rshift>,1,1,95783,352
CONTROL_TS_8_A,1,test,P,44,2,856,391,P,1,<rshift>,1,1,96783,405
CONTROL_TS_8_A,1,test,P,45,3,656,591,P,1,<rshift>,1,1,97784,417
CONTROL_TS_8_A,1,test,P,46,3,656,591,P,1,<rshift>,1,1,98783,363
CONTROL_TS_8_A,1,test,P,47,3,656,591,R,0,NONE,0,1,99783,950
CONTROL_TS_8_A,1,test,P,48,1,656,391,P,1,<rshift>,1,1,100783,294
CONTROL_TS_8_A,1,test,P,49,2,856,391,P,1,<rshift>,1,1,101783,370
CONTROL_TS_8_A,1,test,P,50,2,856,391,P,1,<rshift>,1,1,102783,330
CONTROL_TS_8_A,1,test,P,51,2,856,391,P,1,<rshift>,1,1,103783,322
CONTROL_TS_8_A,1,test,P,52,4,856,591,P,1,<rshift>,1,1,104784,363
CONTROL_TS_8_A,1,test,P,53,1,656,391,R,0,NONE,0,1,105783,950
CONTROL_TS_8_A,1,test,P,54,1,656,391,P,1,<rshift>,1,1,106783,562
CONTROL_TS_8_A,1,test,P,55,2,856,391,P,1,<rshift>,1,1,107783,352
CONTROL_TS_8_A,1,test,P,56,2,856,391,P,1,<rshift>,1,1,108783,319
CONTROL_TS_8_A,1,test,P,57,1,656,391,P,1,<rshift>,1,1,109784,368
CONTROL_TS_8_A,1,test,P,58,3,656,591,P,1,<rshift>,1,1,110783,405
CONTROL_TS_8_A,1,test,P,59,2,856,391,P,1,<rshift>,1,1,111783,326
CONTROL_TS_8_A,1,test,P,60,3,656,591,P,1,<rshift>,1,1,112783,423
CONTROL_TS_8_A,1,test,P,61,2,856,391,R,0,<rshift>,1,0,113783,300
CONTROL_TS_8_A,1,test,P,62,1,656,391,P,1,<rshift>,1,1,114783,466
CONTROL_TS_8_A,1,test,P,63,4,856,591,P,1,<rshift>,1,1,115783,378
CONTROL_TS_8_A,1,test,P,64,4,856,591,R,0,<rshift>,1,0,116783,417
CONTROL_TS_8_A,1,test,P,65,2,856,391,R,0,<rshift>,1,0,117783,359
CONTROL_TS_8_A,1,test,P,66,2,856,391,P,1,<rshift>,1,1,118783,396
CONTROL_TS_8_A,1,test,P,67,2,856,391,P,1,<rshift>,1,1,119783,329
CONTROL_TS_8_A,1,test,P,68,2,856,391,P,1,<rshift>,1,1,120783,332
CONTROL_TS_8_A,1,test,P,69,4,856,591,P,1,<rshift>,1,1,121783,398
CONTROL_TS_8_A,1,test,P,70,3,656,591,P,1,<rshift>,1,1,122783,439
CONTROL_TS_8_A,1,test,P,71,4,856,591,P,1,<rshift>,1,1,123783,521
CONTROL_TS_8_A,1,test,P,72,1,656,391,P,1,<rshift>,1,1,124783,401
CONTROL_TS_8_A,1,test,P,73,2,856,391,P,1,<rshift>,1,1,125783,403
CONTROL_TS_8_A,1,test,P,74,1,656,391,P,1,<rshift>,1,1,126783,440
CONTROL_TS_8_A,1,test,P,75,2,856,391,P,1,<rshift>,1,1,127783,479
CONTROL_TS_8_A,1,test,P,76,4,856,591,P,1,<rshift>,1,1,128783,521
CONTROL_TS_8_A,1,test,P,77,1,656,391,P,1,<rshift>,1,1,129783,310
CONTROL_TS_8_A,1,test,P,78,3,656,591,P,1,<rshift>,1,1,130783,371
CONTROL_TS_8_A,1,test,P,79,4,856,591,P,1,<rshift>,1,1,131783,383
CONTROL_TS_8_A,1,test,P,80,3,656,591,R,0,<rshift>,1,0,132783,394
CONTROL_TS_8_A,1,test,P,81,3,656,591,P,1,<rshift>,1,1,133783,521
CONTROL_TS_8_A,1,test,P,82,2,856,391,P,1,<rshift>,1,1,134783,408
CONTROL_TS_8_A,1,test,P,83,3,656,591,P,1,<rshift>,1,1,135784,416
CONTROL_TS_8_A,1,test,P,84,4,856,591,P,1,<rshift>,1,1,136783,426
CONTROL_TS_8_A,1,test,P,85,1,656,391,P,1,<rshift>,1,1,137783,382
CONTROL_TS_8_A,1,test,P,86,1,656,391,P,1,<rshift>,1,1,138783,521
CONTROL_TS_8_A,1,test,P,87,3,656,591,P,1,<rshift>,1,1,139783,356
CONTROL_TS_8_A,1,test,P,88,4,856,591,P,1,<rshift>,1,1,140784,386
CONTROL_TS_8_A,1,test,P,89,4,856,591,R,0,NONE,0,1,141783,950
CONTROL_TS_8_A,1,test,P,90,3,656,591,P,1,<rshift>,1,1,142783,403
CONTROL_TS_8_A,1,test,P,91,4,856,591,P,1,<rshift>,1,1,143783,433
CONTROL_TS_8_A,1,test,P,92,2,856,391,R,0,NONE,0,1,144783,950
CONTROL_TS_8_A,1,test,P,93,1,656,391,R,0,<rshift>,1,0,145783,297
CONTROL_TS_8_A,1,test,P,94,1,656,391,R,0,<rshift>,1,0,146783,441
CONTROL_TS_8_A,1,test,P,95,2,856,391,P,1,<rshift>,1,1,147783,440
CONTROL_TS_8_A,1,test,P,96,2,856,391,P,1,<rshift>,1,1,148783,408
CONTROL_TS_8_A,1,test,P,97,4,856,591,R,0,NONE,0,1,149783,950
CONTROL_TS_8_A,1,test,P,98,4,856,591,P,1,<rshift>,1,1,150783,397
CONTROL_TS_8_A,1,test,P,99,3,656,591,P,1,<rshift>,1,1,151783,403
CONTROL_TS_8_A,1,test,P,100,1,656,391,P,1,<rshift>,1,1,152783,409
CONTROL_TS_8_A,1,test,P,101,4,856,591,P,1,<rshift>,1,1,153783,571
CONTROL_TS_8_A,1,test,P,102,2,856,391,P,1,<rshift>,1,1,154783,338
CONTROL_TS_8_A,1,test,P,103,4,856,591,R,0,NONE,0,1,155783,950
CONTROL_TS_8_A,1,test,P,104,2,856,391,P,1,<rshift>,1,1,156783,470
CONTROL_TS_8_A,1,test,P,105,4,856,591,P,1,<rshift>,1,1,157783,552
CONTROL_TS_8_A,1,test,P,106,4,856,591,R,0,NONE,0,1,158783,950
CONTROL_TS_8_A,1,test,P,107,3,656,591,P,1,<rshift>,1,1,159783,522
CONTROL_TS_8_A,1,test,P,108,1,656,391,R,0,NONE,0,1,160783,950
CONTROL_TS_8_A,1,test,P,109,2,856,391,P,1,<rshift>,1,1,161783,521
CONTROL_TS_8_A,1,test,P,110,3,656,591,P,1,<rshift>,1,1,162783,532
CONTROL_TS_8_A,1,test,P,111,1,656,391,R,0,NONE,0,1,163783,950
CONTROL_TS_8_A,1,test,P,112,4,856,591,P,1,<rshift>,1,1,164782,392
CONTROL_TS_8_A,1,test,P,113,3,656,591,P,1,<rshift>,1,1,165783,426
CONTROL_TS_8_A,1,test,P,114,1,656,391,P,1,<rshift>,1,1,166783,521
CONTROL_TS_8_A,1,test,P,115,2,856,391,P,1,<rshift>,1,1,167783,388
CONTROL_TS_8_A,1,test,P,116,4,856,591,P,1,<rshift>,1,1,168783,434
CONTROL_TS_8_A,1,test,P,117,4,856,591,P,1,<rshift>,1,1,169783,372
CONTROL_TS_8_A,1,test,P,118,1,656,391,P,1,<rshift>,1,1,170783,536
CONTROL_TS_8_A,1,test,P,119,1,656,391,P,1,<rshift>,1,1,171783,547
CONTROL_TS_8_A,1,test,P,120,1,656,391,P,1,<rshift>,1,1,172783,406
CONTROL_TS_8_A,1,test,P,121,2,856,391,P,1,<rshift>,1,1,173783,402
CONTROL_TS_8_A,1,test,P,122,1,656,391,P,1,<rshift>,1,1,174783,349
CONTROL_TS_8_A,1,test,P,123,3,656,591,P,1,<rshift>,1,1,175783,521
CONTROL_TS_8_A,1,test,P,124,3,656,591,R,0,NONE,0,1,176783,950
CONTROL_TS_8_A,1,test,P,125,4,856,591,P,1,<rshift>,1,1,177783,378
CONTROL_TS_8_A,1,test,P,126,1,656,391,P,1,<rshift>,1,1,178783,395
CONTROL_TS_8_A,1,test,P,127,4,856,591,R,0,NONE,0,1,179783,950
CONTROL_TS_8_A,1,test,P,128,1,656,391,P,1,<rshift>,1,1,180783,342
CONTROL_TS_8_A,1,test,P,129,4,856,591,P,1,<rshift>,1,1,181783,395
CONTROL_TS_8_A,1,test,P,130,4,856,591,P,1,<rshift>,1,1,182783,521
CONTROL_TS_8_A,1,test,P,131,3,656,591,P,1,<rshift>,1,1,183783,407
CONTROL_TS_8_A,1,test,P,132,2,856,391,P,1,<rshift>,1,1,184783,373
CONTROL_TS_8_A,1,test,P,133,4,856,591,P,1,<rshift>,1,1,185784,366
CONTROL_TS_8_A,1,test,P,134,2,856,391,P,1,<rshift>,1,1,186783,341
CONTROL_TS_8_A,1,test,P,135,1,656,391,R,0,NONE,0,1,187783,950
CONTROL_TS_8_A,1,test,P,136,1,656,391,R,0,NONE,0,1,188783,950
CONTROL_TS_8_A,1,test,P,137,4,856,591,P,1,<rshift>,1,1,189783,372
CONTROL_TS_8_A,1,test,P,138,4,856,591,P,1,<rshift>,1,1,190783,332
CONTROL_TS_8_A,1,test,P,139,4,856,591,P,1,<rshift>,1,1,191783,355
CONTROL_TS_8_A,1,test,P,140,1,656,391,P,1,<rshift>,1,1,192783,355
CONTROL_TS_8_A,1,test,P,141,1,656,391,P,1,<rshift>,1,1,193783,364
CONTROL_TS_8_A,1,test,P,142,1,656,391,R,0,<rshift>,1,0,194783,332
CONTROL_TS_8_A,1,test,P,143,4,856,591,P,1,<rshift>,1,1,195783,486
CONTROL_TS_8_A,1,test,P,144,4,856,591,P,1,<rshift>,1,1,196783,434
CONTROL_TS_8_A,1,test,P,145,2,856,391,P,1,<rshift>,1,1,197783,421
CONTROL_TS_8_A,1,test,P,146,2,856,391,P,1,<rshift>,1,1,198783,370
CONTROL_TS_8_A,1,test,P,147,3,656,591,P,1,<rshift>,1,1,199783,428
CONTROL_TS_8_A,1,test,P,148,2,856,391,R,0,NONE,0,1,200783,950
CONTROL_TS_8_A,1,test,P,149,2,856,391,P,1,<rshift>,1,1,201783,402
CONTROL_TS_8_A,1,test,P,150,1,656,391,P,1,<rshift>,1,1,202783,475
CONTROL_TS_8_A,1,test,P,151,1,656,391,R,0,NONE,0,1,203783,950
CONTROL_TS_8_A,1,test,P,152,3,656,591,P,1,<rshift>,1,1,204782,308
CONTROL_TS_8_A,1,test,P,153,4,856,591,P,1,<rshift>,1,1,205783,346
CONTROL_TS_8_A,1,test,P,154,4,856,591,P,1,<rshift>,1,1,206783,362
CONTROL_TS_8_A,1,test,P,155,3,656,591,R,0,NONE,0,1,207783,950
CONTROL_TS_8_A,1,test,P,156,1,656,391,P,1,<rshift>,1,1,208783,329
CONTROL_TS_8_A,1,test,P,157,2,856,391,P,1,<rshift>,1,1,209783,345
CONTROL_TS_8_A,1,test,P,158,3,656,591,P,1,<rshift>,1,1,210783,432
CONTROL_TS_8_A,1,test,P,159,4,856,591,R,0,NONE,0,1,211783,950
CONTROL_TS_8_A,1,test,P,160,4,856,591,P,1,<rshift>,1,1,212783,523
CONTROL_TS_8_A,1,test,P,161,4,856,591,P,1,<rshift>,1,1,213783,372
CONTROL_TS_8_A,1,test,P,162,4,856,591,R,0,<rshift>,1,0,214783,416
CONTROL_TS_8_A,1,test,P,163,3,656,591,P,1,<rshift>,1,1,215783,388
CONTROL_TS_8_A,1,test,P,164,2,856,391,P,1,<rshift>,1,1,216783,372
CONTROL_TS_8_A,1,test,P,165,4,856,591,P,1,<rshift>,1,1,217783,432
CONTROL_TS_8_A,1,test,P,166,3,656,591,P,1,<rshift>,1,1,218783,409
CONTROL_TS_8_A,1,test,P,167,1,656,391,P,1,<rshift>,1,1,219783,420
CONTROL_TS_8_A,1,test,P,168,2,856,391,P,1,<rshift>,1,1,220783,369
CONTROL_TS_8_A,1,test,P,169,2,856,391,P,1,<rshift>,1,1,221783,412
CONTROL_TS_8_A,1,test,P,170,3,656,591,P,1,<rshift>,1,1,222783,385
CONTROL_TS_8_A,1,test,P,171,1,656,391,R,0,<rshift>,1,0,223783,392
CONTROL_TS_8_A,1,test,P,172,1,656,391,P,1,<rshift>,1,1,224783,435
CONTROL_TS_8_A,1,test,P,173,2,856,391,P,1,<rshift>,1,1,225783,454
CONTROL_TS_8_A,1,test,P,174,2,856,391,P,1,<rshift>,1,1,226783,383
CONTROL_TS_8_A,1,test,P,175,2,856,391,P,1,<rshift>,1,1,227783,346
CONTROL_TS_8_A,1,test,P,176,1,656,391,P,1,<rshift>,1,1,228783,419
CONTROL_TS_8_A,1,test,P,177,3,656,591,R,0,NONE,0,1,229783,950
CONTROL_TS_8_A,1,test,P,178,4,856,591,P,1,<rshift>,1,1,230783,480
CONTROL_TS_8_A,1,test,P,179,3,656,591,P,1,<rshift>,1,1,231783,449
CONTROL_TS_8_A,1,test,P,180,2,856,391,R,0,NONE,0,1,232783,950
CONTROL_TS_8_A,1,test,P,181,3,656,591,R,0,NONE,0,1,233783,950
CONTROL_TS_8_A,1,test,P,182,4,856,591,P,1,<rshift>,1,1,234783,407
CONTROL_TS_8_A,1,test,P,183,3,656,591,P,1,<rshift>,1,1,235783,406
CONTROL_TS_8_A,1,test,P,184,4,856,591,P,1,<rshift>,1,1,236783,360
CONTROL_TS_8_A,1,test,P,185,4,856,591,P,1,<rshift>,1,1,237783,461
CONTROL_TS_8_A,1,test,P,186,1,656,391,P,1,<rshift>,1,1,238783,583
CONTROL_TS_8_A,1,test,P,187,3,656,591,P,1,<rshift>,1,1,239783,465
CONTROL_TS_8_A,1,test,P,188,3,656,591,R,0,NONE,0,1,240783,950
CONTROL_TS_8_A,1,test,P,189,3,656,591,P,1,<rshift>,1,1,241782,437
CONTROL_TS_8_A,1,test,P,190,4,856,591,P,1,<rshift>,1,1,242783,350
CONTROL_TS_8_A,1,test,P,191,2,856,391,R,0,NONE,0,1,243783,950
CONTROL_TS_8_A,1,test,P,192,1,656,391,P,1,<rshift>,1,1,244783,321
CONTROL_TS_8_A,1,test,P,193,1,656,391,R,0,NONE,0,1,245783,950
CONTROL_TS_8_A,1,test,P,194,4,856,591,P,1,<rshift>,1,1,246783,420
CONTROL_TS_8_A,1,test,P,195,1,656,391,R,0,NONE,0,1,247783,950
CONTROL_TS_8_A,1,test,P,196,1,656,391,P,1,<rshift>,1,1,248783,430
CONTROL_TS_8_A,1,test,P,197,2,856,391,P,1,<rshift>,1,1,249783,463
CONTROL_TS_8_A,1,test,P,198,2,856,391,R,0,NONE,0,1,250783,950
CONTROL_TS_8_A,1,test,P,199,2,856,391,P,1,<rshift>,1,1,251783,579
CONTROL_TS_8_A,1,test,P,200,3,656,591,P,1,<rshift>,1,1,252783,521
CONTROL_TS_8_A,1,test,P,201,4,856,591,R,0,<rshift>,1,0,253783,352
CONTROL_TS_8_A,1,test,P,202,4,856,591,P,1,<rshift>,1,1,254783,480
CONTROL_TS_8_A,1,test,P,203,1,656,391,P,1,<rshift>,1,1,255783,475
CONTROL_TS_8_A,1,test,P,204,3,656,591,R,0,<rshift>,1,0,256783,429
CONTROL_TS_8_A,1,test,P,205,2,856,391,P,1,<rshift>,1,1,257783,344
CONTROL_TS_8_A,1,test,P,206,1,656,391,P,1,<rshift>,1,1,258783,381
CONTROL_TS_8_A,1,test,P,207,4,856,591,P,1,<rshift>,1,1,259783,426
CONTROL_TS_8_A,1,test,P,208,1,656,391,P,1,<rshift>,1,1,260783,440
CONTROL_TS_8_A,1,test,P,209,3,656,591,P,1,<rshift>,1,1,261783,521
CONTROL_TS_8_A,1,test,P,210,1,656,391,P,1,<rshift>,1,1,262783,536
CONTROL_TS_8_A,1,test,P,211,1,656,391,P,1,<rshift>,1,1,263784,395
CONTROL_TS_8_A,1,test,P,212,4,856,591,P,1,<rshift>,1,1,264783,450
CONTROL_TS_8_A,1,test,P,213,3,656,591,P,1,<rshift>,1,1,265783,436
CONTROL_TS_8_A,1,test,P,214,2,856,391,P,1,<rshift>,1,1,266783,521
CONTROL_TS_8_A,1,test,P,215,4,856,591,P,1,<rshift>,1,1,267783,489
CONTROL_TS_8_A,1,test,P,216,1,656,391,R,0,NONE,0,1,268783,950
CONTROL_TS_8_A,1,test,P,217,4,856,591,P,1,<rshift>,1,1,269783,448
CONTROL_TS_8_A,1,test,P,218,1,656,391,P,1,<rshift>,1,1,270783,521
CONTROL_TS_8_A,1,test,P,219,3,656,591,P,1,<rshift>,1,1,271783,524
CONTROL_TS_8_A,1,test,P,220,1,656,391,P,1,<rshift>,1,1,272783,402
CONTROL_TS_8_A,1,test,P,221,1,656,391,P,1,<rshift>,1,1,273783,473
CONTROL_TS_8_A,1,test,P,222,1,656,391,P,1,<rshift>,1,1,274783,371
CONTROL_TS_8_A,1,test,P,223,4,856,591,P,1,<rshift>,1,1,275783,552
CONTROL_TS_8_A,1,test,P,224,3,656,591,P,1,<rshift>,1,1,276783,426
CONTROL_TS_8_A,1,test,P,225,1,656,391,P,1,<rshift>,1,1,277783,367
CONTROL_TS_8_A,1,test,P,226,3,656,591,P,1,<rshift>,1,1,278783,471
CONTROL_TS_8_A,1,test,P,227,4,856,591,P,1,<rshift>,1,1,279783,422
CONTROL_TS_8_A,1,test,P,228,4,856,591,P,1,<rshift>,1,1,280783,391
CONTROL_TS_8_A,1,test,P,229,4,856,591,P,1,<rshift>,1,1,281783,373
CONTROL_TS_8_A,1,test,P,230,2,856,391,P,1,<rshift>,1,1,282783,473
CONTROL_TS_8_A,1,test,P,231,2,856,391,P,1,<rshift>,1,1,283783,543
CONTROL_TS_8_A,1,test,P,232,3,656,591,P,1,<rshift>,1,1,284783,430
CONTROL_TS_8_A,1,test,P,233,4,856,591,P,1,<rshift>,1,1,285783,423
CONTROL_TS_8_A,1,test,P,234,3,656,591,P,1,<rshift>,1,1,286783,389
CONTROL_TS_8_A,1,test,P,235,1,656,391,P,1,<rshift>,1,1,287783,377
CONTROL_TS_8_A,1,test,P,236,1,656,391,P,1,<rshift>,1,1,288783,458
CONTROL_TS_8_A,1,test,P,237,1,656,391,P,1,<rshift>,1,1,289783,394
CONTROL_TS_8_A,1,test,P,238,4,856,591,P,1,<rshift>,1,1,290783,471
CONTROL_TS_8_A,1,test,P,239,2,856,391,P,1,<rshift>,1,1,291783,392
CONTROL_TS_8_A,1,test,P,240,4,856,591,P,1,<rshift>,1,1,292783,384
CONTROL_TS_8_A,1,test,P,241,1,656,391,P,1,<rshift>,1,1,293783,465
CONTROL_TS_8_A,1,test,P,242,2,856,391,P,1,<rshift>,1,1,294783,491
CONTROL_TS_8_A,1,test,P,243,4,856,591,P,1,<rshift>,1,1,295785,393
CONTROL_TS_8_A,1,test,P,244,1,656,391,P,1,<rshift>,1,1,296784,364
CONTROL_TS_8_A,1,test,P,245,1,656,391,R,0,<rshift>,1,0,297785,323
CONTROL_TS_8_A,1,test,P,246,1,656,391,P,1,<rshift>,1,1,298783,384
CONTROL_TS_8_A,1,test,P,247,3,656,591,P,1,<rshift>,1,1,299783,390
CONTROL_TS_8_A,1,test,P,248,2,856,391,R,0,NONE,0,1,300783,950
CONTROL_TS_8_A,1,test,P,249,1,656,391,P,1,<rshift>,1,1,301783,310
CONTROL_TS_8_A,1,test,P,250,3,656,591,P,1,<rshift>,1,1,302783,366
CONTROL_TS_8_A,1,test,P,251,3,656,591,P,1,<rshift>,1,1,303783,391
CONTROL_TS_8_A,1,test,P,252,1,656,391,P,1,<rshift>,1,1,304783,400
CONTROL_TS_8_A,1,test,P,253,1,656,391,P,1,<rshift>,1,1,305783,409
CONTROL_TS_8_A,1,test,P,254,3,656,591,P,1,<rshift>,1,1,306783,381
CONTROL_TS_8_A,1,test,P,255,1,656,391,P,1,<rshift>,1,1,307783,343
CONTROL_TS_8_A,1,test,P,256,2,856,391,P,1,<rshift>,1,1,308783,418
CONTROL_TS_8_A,1,test,P,257,1,656,391,P,1,<rshift>,1,1,309783,386
CONTROL_TS_8_A,1,test,P,258,3,656,591,R,0,<rshift>,1,0,310784,412
CONTROL_TS_8_A,1,test,P,259,2,856,391,R,0,NONE,0,1,311783,950
CONTROL_TS_8_A,1,test,P,260,1,656,391,P,1,<rshift>,1,1,312783,566
CONTROL_TS_8_A,1,test,P,261,4,856,591,P,1,<rshift>,1,1,313783,377
CONTROL_TS_8_A,1,test,P,262,3,656,591,R,0,NONE,0,1,314783,950
CONTROL_TS_8_A,1,test,P,263,3,656,591,P,1,<rshift>,1,1,315782,592
CONTROL_TS_8_A,1,test,P,264,1,656,391,P,1,<rshift>,1,1,316783,430
CONTROL_TS_8_A,1,test,P,265,3,656,591,P,1,<rshift>,1,1,317783,521
CONTROL_TS_8_A,1,test,P,266,1,656,391,P,1,<rshift>,1,1,318783,388
CONTROL_TS_8_A,1,test,P,267,4,856,591,P,1,<rshift>,1,1,319783,424
CONTROL_TS_8_A,1,test,P,268,4,856,591,R,0,NONE,0,1,320783,950
CONTROL_TS_8_A,1,test,P,269,3,656,591,P,1,<rshift>,1,1,321783,382
CONTROL_TS_8_A,1,test,P,270,4,856,591,P,1,<rshift>,1,1,322783,365
CONTROL_TS_8_A,1,test,P,271,1,656,391,R,0,NONE,0,1,323783,950
CONTROL_TS_8_A,1,test,P,272,2,856,391,R,0,NONE,0,1,324783,950
CONTROL_TS_8_A,1,test,P,273,4,856,591,P,1,<rshift>,1,1,325783,381
CONTROL_TS_8_A,1,test,P,274,2,856,391,P,1,<rshift>,1,1,326783,376
CONTROL_TS_8_A,1,test,P,275,4,856,591,P,1,<rshift>,1,1,327783,448
CONTROL_TS_8_A,1,test,P,276,3,656,591,P,1,<rshift>,1,1,328783,406
CONTROL_TS_8_A,1,test,P,277,4,856,591,P,1,<rshift>,1,1,329783,427
CONTROL_TS_8_A,1,test,P,278,4,856,591,P,1,<rshift>,1,1,330783,475
CONTROL_TS_8_A,1,test,P,279,4,856,591,R,0,NONE,0,1,331783,950
CONTROL_TS_8_A,1,test,P,280,1,656,391,P,1,<rshift>,1,1,332783,392
CONTROL_TS_8_A,1,test,P,281,3,656,591,P,1,<rshift>,1,1,333783,431
CONTROL_TS_8_A,1,test,P,282,3,656,591,R,0,NONE,0,1,334783,950
CONTROL_TS_8_A,1,test,P,283,4,856,591,R,0,<rshift>,1,0,335783,386
CONTROL_TS_8_A,1,test,P,284,4,856,591,P,1,<rshift>,1,1,336783,404
CONTROL_TS_8_A,1,test,P,285,4,856,591,P,1,<rshift>,1,1,337783,449
CONTROL_TS_8_A,1,test,P,286,1,656,391,P,1,<rshift>,1,1,338783,358
CONTROL_TS_8_A,1,test,P,287,3,656,591,P,1,<rshift>,1,1,339783,522
CONTROL_TS_8_A,1,test,P,288,2,856,391,R,0,NONE,0,1,340783,950
CONTROL_TS_8_A,1,test,P,289,4,856,591,R,0,NONE,0,1,341783,950
CONTROL_TS_8_A,1,test,P,290,3,656,591,P,1,<rshift>,1,1,342783,374
CONTROL_TS_8_A,1,test,P,291,2,856,391,P,1,<rshift>,1,1,343783,443
CONTROL_TS_8_A,1,test,P,292,2,856,391,P,1,<rshift>,1,1,344783,377
CONTROL_TS_8_A,1,test,P,293,1,656,391,R,0,<rshift>,1,0,345783,289
CONTROL_TS_8_A,1,test,P,294,3,656,591,P,1,<rshift>,1,1,346783,386
CONTROL_TS_8_A,1,test,P,295,1,656,391,P,1,<rshift>,1,1,347783,366
CONTROL_TS_8_A,1,test,P,296,1,656,391,P,1,<rshift>,1,1,348783,360
CONTROL_TS_8_A,1,test,P,297,3,656,591,P,1,<rshift>,1,1,349783,471
CONTROL_TS_8_A,1,test,P,298,2,856,391,P,1,<rshift>,1,1,350783,440
CONTROL_TS_8_A,1,test,P,299,2,856,391,R,0,NONE,0,1,351783,950
CONTROL_TS_8_A,1,test,P,300,3,656,591,P,1,<rshift>,1,1,352783,489
CONTROL_TS_8_A,2,practice,R,1,2,856,391,R,1,<rshift>,1,1,357381,707
CONTROL_TS_8_A,2,practice,R,2,3,656,591,P,0,NONE,0,1,358381,950
CONTROL_TS_8_A,2,practice,R,3,4,856,591,R,1,<rshift>,1,1,359380,381
CONTROL_TS_8_A,2,practice,R,4,4,856,591,R,1,<rshift>,1,1,360380,434
CONTROL_TS_8_A,2,practice,R,5,4,856,591,R,1,<rshift>,1,1,361380,464
CONTROL_TS_8_A,2,practice,R,6,4,856,591,R,1,<rshift>,1,1,362380,416
CONTROL_TS_8_A,2,practice,R,7,2,856,391,P,0,NONE,0,1,363380,950
CONTROL_TS_8_A,2,practice,R,8,4,856,591,R,1,<rshift>,1,1,364380,343
CONTROL_TS_8_A,2,practice,R,9,2,856,391,R,1,<rshift>,1,1,365380,437
CONTROL_TS_8_A,2,practice,R,10,4,856,591,R,1,<rshift>,1,1,366380,417
CONTROL_TS_8_A,3,test,R,1,2,856,391,R,1,<rshift>,1,1,370514,521
CONTROL_TS_8_A,3,test,R,2,4,856,591,R,1,<rshift>,1,1,371513,389
CONTROL_TS_8_A,3,test,R,3,2,856,391,P,0,NONE,0,1,372514,950
CONTROL_TS_8_A,3,test,R,4,2,856,391,R,1,<rshift>,1,1,373513,521
CONTROL_TS_8_A,3,test,R,5,1,656,391,R,1,<rshift>,1,1,374513,460
CONTROL_TS_8_A,3,test,R,6,2,856,391,R,1,<rshift>,1,1,375513,456
CONTROL_TS_8_A,3,test,R,7,1,656,391,R,1,<rshift>,1,1,376513,492
CONTROL_TS_8_A,3,test,R,8,1,656,391,R,1,<rshift>,1,1,377513,682
CONTROL_TS_8_A,3,test,R,9,3,656,591,R,1,<rshift>,1,1,378513,468
CONTROL_TS_8_A,3,test,R,10,2,856,391,R,1,<rshift>,1,1,379513,411
CONTROL_TS_8_A,3,test,R,11,4,856,591,R,1,<rshift>,1,1,380513,521
CONTROL_TS_8_A,3,test,R,12,3,656,591,R,1,<rshift>,1,1,381513,413
CONTROL_TS_8_A,3,test,R,13,1,656,391,P,0,NONE,0,1,382513,950
CONTROL_TS_8_A,3,test,R,14,3,656,591,R,1,<rshift>,1,1,383513,526
CONTROL_TS_8_A,3,test,R,15,3,656,591,R,1,<rshift>,1,1,384513,444
CONTROL_TS_8_A,3,test,R,16,4,856,591,R,1,<rshift>,1,1,385513,445
CONTROL_TS_8_A,3,test,R,17,2,856,391,R,1,<rshift>,1,1,386513,411
CONTROL_TS_8_A,3,test,R,18,3,656,591,R,1,<rshift>,1,1,387513,391
CONTROL_TS_8_A,3,test,R,19,2,856,391,R,1,<rshift>,1,1,388513,550
CONTROL_TS_8_A,3,test,R,20,2,856,391,R,1,<rshift>,1,1,389513,343
CONTROL_TS_8_A,3,test,R,21,4,856,591,R,1,<rshift>,1,1,390513,375
CONTROL_TS_8_A,3,test,R,22,3,656,591,R,1,<rshift>,1,1,391513,348
CONTROL_TS_8_A,3,test,R,23,3,656,591,P,0,<rshift>,1,0,392514,338
CONTROL_TS_8_A,3,test,R,24,3,656,591,P,0,NONE,0,1,393513,950
CONTROL_TS_8_A,3,test,R,25,4,856,591,R,1,<rshift>,1,1,394513,360
CONTROL_TS_8_A,3,test,R,26,4,856,591,P,0,NONE,0,1,395513,950
CONTROL_TS_8_A,3,test,R,27,4,856,591,R,1,<rshift>,1,1,396513,381
CONTROL_TS_8_A,3,test,R,28,3,656,591,R,1,<rshift>,1,1,397513,529
CONTROL_TS_8_A,3,test,R,29,2,856,391,P,0,NONE,0,1,398513,950
CONTROL_TS_8_A,3,test,R,30,2,856,391,R,1,<rshift>,1,1,399513,386
CONTROL_TS_8_A,3,test,R,31,2,856,391,R,1,<rshift>,1,1,400513,367
CONTROL_TS_8_A,3,test,R,32,4,856,591,R,1,<rshift>,1,1,401513,422
CONTROL_TS_8_A,3,test,R,33,2,856,391,R,1,<rshift>,1,1,402513,399
CONTROL_TS_8_A,3,test,R,34,3,656,591,P,0,<rshift>,1,0,403513,374
CONTROL_TS_8_A,3,test,R,35,3,656,591,R,1,<rshift>,1,1,404513,460
CONTROL_TS_8_A,3,test,R,36,4,856,591,R,1,<rshift>,1,1,405513,526
CONTROL_TS_8_A,3,test,R,37,1,656,391,R,1,<rshift>,1,1,406513,496
CONTROL_TS_8_A,3,test,R,38,4,856,591,R,1,<rshift>,1,1,407513,457
CONTROL_TS_8_A,3,test,R,39,3,656,591,P,0,NONE,0,1,408513,950
CONTROL_TS_8_A,3,test,R,40,4,856,591,P,0,<rshift>,1,0,409513,338
CONTROL_TS_8_A,3,test,R,41,2,856,391,R,1,<rshift>,1,1,410513,296
CONTROL_TS_8_A,3,test,R,42,1,656,391,P,0,NONE,0,1,411513,950
CONTROL_TS_8_A,3,test,R,43,1,656,391,R,1,<rshift>,1,1,412513,383
CONTROL_TS_8_A,3,test,R,44,3,656,591,P,0,NONE,0,1,413513,950
CONTROL_TS_8_A,3,test,R,45,4,856,591,R,1,<rshift>,1,1,414513,370
CONTROL_TS_8_A,3,test,R,46,1,656,391,R,1,<rshift>,1,1,415513,465
CONTROL_TS_8_A,3,test,R,47,4,856,591,R,1,<rshift>,1,1,416513,545
CONTROL_TS_8_A,3,test,R,48,3,656,591,P,0,NONE,0,1,417513,950
CONTROL_TS_8_A,3,test,R,49,3,656,591,P,0,NONE,0,1,418512,951
CONTROL_TS_8_A,3,test,R,50,3,656,591,R,1,<rshift>,1,1,419513,493
CONTROL_TS_8_A,3,test,R,51,3,656,591,R,1,<rshift>,1,1,420513,406
CONTROL_TS_8_A,3,test,R,52,4,856,591,R,1,<rshift>,1,1,421513,372
CONTROL_TS_8_A,3,test,R,53,3,656,591,R,1,<rshift>,1,1,422514,556
CONTROL_TS_8_A,3,test,R,54,1,656,391,P,0,NONE,0,1,423513,950
CONTROL_TS_8_A,3,test,R,55,4,856,591,R,1,<rshift>,1,1,424513,552
CONTROL_TS_8_A,3,test,R,56,4,856,591,R,1,NONE,0,0,425513,950
CONTROL_TS_8_A,3,test,R,57,1,656,391,R,1,<rshift>,1,1,426513,412
CONTROL_TS_8_A,3,test,R,58,4,856,591,P,0,<rshift>,1,0,427513,423
CONTROL_TS_8_A,3,test,R,59,3,656,591,R,1,<rshift>,1,1,428513,339
CONTROL_TS_8_A,3,test,R,60,4,856,591,R,1,<rshift>,1,1,429513,574
CONTROL_TS_8_A,3,test,R,61,2,856,391,R,1,<rshift>,1,1,430513,441
CONTROL_TS_8_A,3,test,R,62,4,856,591,R,1,<rshift>,1,1,431513,409
CONTROL_TS_8_A,3,test,R,63,3,656,591,R,1,<rshift>,1,1,432513,426
CONTROL_TS_8_A,3,test,R,64,4,856,591,R,1,<rshift>,1,1,433513,411
CONTROL_TS_8_A,3,test,R,65,1,656,391,P,0,NONE,0,1,434513,950
CONTROL_TS_8_A,3,test,R,66,3,656,591,R,1,<rshift>,1,1,435514,332
CONTROL_TS_8_A,3,test,R,67,4,856,591,P,0,<rshift>,1,0,436513,328
CONTROL_TS_8_A,3,test,R,68,3,656,591,R,1,<rshift>,1,1,437513,427
CONTROL_TS_8_A,3,test,R,69,4,856,591,R,1,<rshift>,1,1,438513,416
CONTROL_TS_8_A,3,test,R,70,2,856,391,R,1,<rshift>,1,1,439513,403
CONTROL_TS_8_A,3,test,R,71,2,856,391,R,1,<rshift>,1,1,440513,454
CONTROL_TS_8_A,3,test,R,72,1,656,391,R,1,<rshift>,1,1,441513,448
CONTROL_TS_8_A,3,test,R,73,3,656,591,R,1,<rshift>,1,1,442513,380
CONTROL_TS_8_A,3,test,R,74,2,856,391,R,1,<rshift>,1,1,443513,444
CONTROL_TS_8_A,3,test,R,75,1,656,391,R,1,<rshift>,1,1,444513,409
CONTROL_TS_8_A,3,test,R,76,3,656,591,R,1,<rshift>,1,1,445513,377
CONTROL_TS_8_A,3,test,R,77,1,656,391,R,1,<rshift>,1,1,446513,319
CONTROL_TS_8_A,3,test,R,78,3,656,591,R,1,<rshift>,1,1,447514,420
CONTROL_TS_8_A,3,test,R,79,4,856,591,P,0,<rshift>,1,0,448513,339
CONTROL_TS_8_A,3,test,R,80,2,856,391,R,1,<rshift>,1,1,449513,411
CONTROL_TS_8_A,3,test,R,81,4,856,591,R,1,<rshift>,1,1,450513,465
CONTROL_TS_8_A,3,test,R,82,3,656,591,R,1,<rshift>,1,1,451513,352
CONTROL_TS_8_A,3,test,R,83,4,856,591,R,1,<rshift>,1,1,452514,401
CONTROL_TS_8_A,3,test,R,84,1,656,391,R,1,<rshift>,1,1,453513,365
CONTROL_TS_8_A,3,test,R,85,3,656,591,P,0,<rshift>,1,0,454513,355
CONTROL_TS_8_A,3,test,R,86,1,656,391,R,1,<rshift>,1,1,455513,396
CONTROL_TS_8_A,3,test,R,87,3,656,591,R,1,<rshift>,1,1,456513,362
CONTROL_TS_8_A,3,test,R,88,2,856,391,R,1,<rshift>,1,1,457513,334
CONTROL_TS_8_A,3,test,R,89,2,856,391,R,1,<rshift>,1,1,458514,381
CONTROL_TS_8_A,3,test,R,90,4,856,591,R,1,<rshift>,1,1,459513,331
CONTROL_TS_8_A,3,test,R,91,1,656,391,R,1,<rshift>,1,1,460513,307
CONTROL_TS_8_A,3,test,R,92,4,856,591,P,0,<rshift>,1,0,461513,371
CONTROL_TS_8_A,3,test,R,93,2,856,391,R,1,<rshift>,1,1,462513,317
CONTROL_TS_8_A,3,test,R,94,3,656,591,R,1,<rshift>,1,1,463513,327
CONTROL_TS_8_A,3,test,R,95,3,656,591,R,1,<rshift>,1,1,464513,395
CONTROL_TS_8_A,3,test,R,96,2,856,391,R,1,<rshift>,1,1,465513,321
CONTROL_TS_8_A,3,test,R,97,1,656,391,P,0,<rshift>,1,0,466513,417
CONTROL_TS_8_A,3,test,R,98,4,856,591,R,1,<rshift>,1,1,467513,385
CONTROL_TS_8_A,3,test,R,99,3,656,591,R,1,<rshift>,1,1,468513,476
CONTROL_TS_8_A,3,test,R,100,2,856,391,R,1,<rshift>,1,1,469513,385
CONTROL_TS_8_A,3,test,R,101,2,856,391,P,0,NONE,0,1,470513,951
CONTROL_TS_8_A,3,test,R,102,2,856,391,R,1,<rshift>,1,1,471513,380
CONTROL_TS_8_A,3,test,R,103,2,856,391,R,1,<rshift>,1,1,472513,418
CONTROL_TS_8_A,3,test,R,104,2,856,391,R,1,<rshift>,1,1,473513,401
CONTROL_TS_8_A,3,test,R,105,1,656,391,R,1,<rshift>,1,1,474514,492
CONTROL_TS_8_A,3,test,R,106,2,856,391,R,1,<rshift>,1,1,475513,521
CONTROL_TS_8_A,3,test,R,107,3,656,591,R,1,<rshift>,1,1,476513,521
CONTROL_TS_8_A,3,test,R,108,1,656,391,P,0,<rshift>,1,0,477513,454
CONTROL_TS_8_A,3,test,R,109,4,856,591,R,1,<rshift>,1,1,478513,386
CONTROL_TS_8_A,3,test,R,110,2,856,391,R,1,<rshift>,1,1,479514,362
CONTROL_TS_8_A,3,test,R,111,2,856,391,R,1,<rshift>,1,1,480514,338
CONTROL_TS_8_A,3,test,R,112,3,656,591,R,1,<rshift>,1,1,481513,444
CONTROL_TS_8_A,3,test,R,113,2,856,391,R,1,<rshift>,1,1,482513,360
CONTROL_TS_8_A,3,test,R,114,1,656,391,R,1,<rshift>,1,1,483513,492
CONTROL_TS_8_A,3,test,R,115,4,856,591,R,1,<rshift>,1,1,484513,452
CONTROL_TS_8_A,3,test,R,116,2,856,391,R,1,<rshift>,1,1,485513,470
CONTROL_TS_8_A,3,test,R,117,2,856,391,R,1,<rshift>,1,1,486513,389
CONTROL_TS_8_A,3,test,R,118,2,856,391,R,1,<rshift>,1,1,487513,404
CONTROL_TS_8_A,3,test,R,119,4,856,591,R,1,<rshift>,1,1,488513,483
CONTROL_TS_8_A,3,test,R,120,3,656,591,R,1,<rshift>,1,1,489513,440
CONTROL_TS_8_A,3,test,R,121,2,856,391,R,1,<rshift>,1,1,490513,390
CONTROL_TS_8_A,3,test,R,122,3,656,591,P,0,NONE,0,1,491513,951
CONTROL_TS_8_A,3,test,R,123,3,656,591,R,1,<rshift>,1,1,492513,440
CONTROL_TS_8_A,3,test,R,124,4,856,591,R,1,<rshift>,1,1,493513,373
CONTROL_TS_8_A,3,test,R,125,1,656,391,R,1,<rshift>,1,1,494513,348
CONTROL_TS_8_A,3,test,R,126,4,856,591,R,1,<rshift>,1,1,495513,346
CONTROL_TS_8_A,3,test,R,127,4,856,591,P,0,<rshift>,1,0,496513,334
CONTROL_TS_8_A,3,test,R,128,1,656,391,R,1,<rshift>,1,1,497514,372
CONTROL_TS_8_A,3,test,R,129,2,856,391,P,0,NONE,0,1,498513,950
CONTROL_TS_8_A,3,test,R,130,3,656,591,R,1,<rshift>,1,1,499513,345
CONTROL_TS_8_A,3,test,R,131,2,856,391,R,1,<rshift>,1,1,500514,419
CONTROL_TS_8_A,3,test,R,132,2,856,391,R,1,<rshift>,1,1,501513,487
CONTROL_TS_8_A,3,test,R,133,2,856,391,P,0,NONE,0,1,502514,950
CONTROL_TS_8_A,3,test,R,134,2,856,391,R,1,<rshift>,1,1,503513,376
CONTROL_TS_8_A,3,test,R,135,2,856,391,P,0,NONE,0,1,504513,950
CONTROL_TS_8_A,3,test,R,136,4,856,591,R,1,<rshift>,1,1,505513,377
CONTROL_TS_8_A,3,test,R,137,3,656,591,R,1,<rshift>,1,1,506513,399
CONTROL_TS_8_A,3,test,R,138,3,656,591,P,0,NONE,0,1,507513,950
CONTROL_TS_8_A,3,test,R,139,2,856,391,R,1,<rshift>,1,1,508513,300
CONTROL_TS_8_A,3,test,R,140,1,656,391,R,1,<rshift>,1,1,509513,306
CONTROL_TS_8_A,3,test,R,141,1,656,391,R,1,<rshift>,1,1,510513,386
CONTROL_TS_8_A,3,test,R,142,2,856,391,P,0,<rshift>,1,0,511513,371
CONTROL_TS_8_A,3,test,R,143,2,856,391,P,0,NONE,0,1,512513,950
CONTROL_TS_8_A,3,test,R,144,2,856,391,P,0,<rshift>,1,0,513513,411
CONTROL_TS_8_A,3,test,R,145,4,856,591,R,1,<rshift>,1,1,514513,488
CONTROL_TS_8_A,3,test,R,146,3,656,591,R,1,<rshift>,1,1,515513,360
CONTROL_TS_8_A,3,test,R,147,2,856,391,R,1,<rshift>,1,1,516513,404
CONTROL_TS_8_A,3,test,R,148,4,856,591,P,0,<rshift>,1,0,517513,373
CONTROL_TS_8_A,3,test,R,149,3,656,591,R,1,<rshift>,1,1,518513,348
CONTROL_TS_8_A,3,test,R,150,2,856,391,R,1,<rshift>,1,1,519513,373
CONTROL_TS_8_A,3,test,R,151,1,656,391,R,1,<rshift>,1,1,520513,328
CONTROL_TS_8_A,3,test,R,152,1,656,391,R,1,<rshift>,1,1,521513,376
CONTROL_TS_8_A,3,test,R,153,4,856,591,R,1,<rshift>,1,1,522513,411
CONTROL_TS_8_A,3,test,R,154,1,656,391,R,1,<rshift>,1,1,523513,542
CONTROL_TS_8_A,3,test,R,155,4,856,591,P,0,NONE,0,1,524513,950
CONTROL_TS_8_A,3,test,R,156,2,856,391,P,0,<rshift>,1,0,525513,342
CONTROL_TS_8_A,3,test,R,157,1,656,391,R,1,<rshift>,1,1,526513,383
CONTROL_TS_8_A,3,test,R,158,3,656,591,R,1,<rshift>,1,1,527514,393
CONTROL_TS_8_A,3,test,R,159,1,656,391,P,0,NONE,0,1,528513,950
CONTROL_TS_8_A,3,test,R,160,2,856,391,R,1,<rshift>,1,1,529513,394
CONTROL_TS_8_A,3,test,R,161,3,656,591,R,1,<rshift>,1,1,530513,521
CONTROL_TS_8_A,3,test,R,162,4,856,591,R,1,<rshift>,1,1,531513,496
CONTROL_TS_8_A,3,test,R,163,1,656,391,R,1,<rshift>,1,1,532513,371
CONTROL_TS_8_A,3,test,R,164,2,856,391,R,1,<rshift>,1,1,533513,429
CONTROL_TS_8_A,3,test,R,165,2,856,391,P,0,NONE,0,1,534513,950
CONTROL_TS_8_A,3,test,R,166,2,856,391,R,1,<rshift>,1,1,535513,431
CONTROL_TS_8_A,3,test,R,167,4,856,591,P,0,NONE,0,1,536513,950
CONTROL_TS_8_A,3,test,R,168,2,856,391,P,0,NONE,0,1,537513,950
CONTROL_TS_8_A,3,test,R,169,1,656,391,R,1,<rshift>,1,1,538513,326
CONTROL_TS_8_A,3,test,R,170,3,656,591,P,0,NONE,0,1,539513,950
CONTROL_TS_8_A,3,test,R,171,1,656,391,R,1,<rshift>,1,1,540513,389
CONTROL_TS_8_A,3,test,R,172,4,856,591,R,1,<rshift>,1,1,541513,397
CONTROL_TS_8_A,3,test,R,173,2,856,391,R,1,<rshift>,1,1,542513,384
CONTROL_TS_8_A,3,test,R,174,2,856,391,R,1,<rshift>,1,1,543513,405
CONTROL_TS_8_A,3,test,R,175,2,856,391,P,0,NONE,0,1,544513,950
CONTROL_TS_8_A,3,test,R,176,2,856,391,P,0,NONE,0,1,545513,950
CONTROL_TS_8_A,3,test,R,177,2,856,391,R,1,<rshift>,1,1,546513,406
CONTROL_TS_8_A,3,test,R,178,2,856,391,R,1,<rshift>,1,1,547513,384
CONTROL_TS_8_A,3,test,R,179,3,656,591,R,1,<rshift>,1,1,548513,446
CONTROL_TS_8_A,3,test,R,180,4,856,591,R,1,<rshift>,1,1,549513,336
CONTROL_TS_8_A,3,test,R,181,4,856,591,P,0,<rshift>,1,0,550514,392
CONTROL_TS_8_A,3,test,R,182,4,856,591,R,1,<rshift>,1,1,551513,410
CONTROL_TS_8_A,3,test,R,183,1,656,391,R,1,<rshift>,1,1,552513,375
CONTROL_TS_8_A,3,test,R,184,3,656,591,R,1,<rshift>,1,1,553513,399
CONTROL_TS_8_A,3,test,R,185,3,656,591,R,1,<rshift>,1,1,554513,389
CONTROL_TS_8_A,3,test,R,186,1,656,391,P,0,NONE,0,1,555513,950
CONTROL_TS_8_A,3,test,R,187,3,656,591,R,1,<rshift>,1,1,556513,394
CONTROL_TS_8_A,3,test,R,188,2,856,391,R,1,<rshift>,1,1,557513,357
CONTROL_TS_8_A,3,test,R,189,3,656,591,P,0,NONE,0,1,558513,950
CONTROL_TS_8_A,3,test,R,190,4,856,591,R,1,<rshift>,1,1,559513,297
CONTROL_TS_8_A,3,test,R,191,4,856,591,R,1,<rshift>,1,1,560514,414
CONTROL_TS_8_A,3,test,R,192,2,856,391,R,1,<rshift>,1,1,561513,376
CONTROL_TS_8_A,3,test,R,193,2,856,391,R,1,<rshift>,1,1,562513,555
CONTROL_TS_8_A,3,test,R,194,2,856,391,R,1,<rshift>,1,1,563513,412
CONTROL_TS_8_A,3,test,R,195,2,856,391,R,1,<rshift>,1,1,564513,376
CONTROL_TS_8_A,3,test,R,196,3,656,591,P,0,NONE,0,1,565514,950
CONTROL_TS_8_A,3,test,R,197,4,856,591,R,1,<rshift>,1,1,566513,468
CONTROL_TS_8_A,3,test,R,198,4,856,591,R,1,<rshift>,1,1,567513,394
CONTROL_TS_8_A,3,test,R,199,4,856,591,R,1,<rshift>,1,1,568513,336
CONTROL_TS_8_A,3,test,R,200,3,656,591,P,0,NONE,0,1,569513,950
CONTROL_TS_8_A,3,test,R,201,4,856,591,R,1,<rshift>,1,1,570513,269
CONTROL_TS_8_A,3,test,R,202,4,856,591,R,1,<rshift>,1,1,571513,278
CONTROL_TS_8_A,3,test,R,203,3,656,591,R,1,<rshift>,1,1,572514,413
CONTROL_TS_8_A,3,test,R,204,1,656,391,P,0,NONE,0,1,573513,950
CONTROL_TS_8_A,3,test,R,205,2,856,391,R,1,<rshift>,1,1,574513,306
CONTROL_TS_8_A,3,test,R,206,1,656,391,R,1,<rshift>,1,1,575513,349
CONTROL_TS_8_A,3,test,R,207,3,656,591,P,0,<rshift>,1,0,576513,388
CONTROL_TS_8_A,3,test,R,208,4,856,591,P,0,NONE,0,1,577513,950
CONTROL_TS_8_A,3,test,R,209,2,856,391,R,1,<rshift>,1,1,578513,417
CONTROL_TS_8_A,3,test,R,210,3,656,591,R,1,<rshift>,1,1,579513,390
CONTROL_TS_8_A,3,test,R,211,1,656,391,P,0,<rshift>,1,0,580514,332
CONTROL_TS_8_A,3,test,R,212,1,656,391,R,1,<rshift>,1,1,581513,354
CONTROL_TS_8_A,3,test,R,213,4,856,591,R,1,<rshift>,1,1,582513,332
CONTROL_TS_8_A,3,test,R,214,2,856,391,R,1,<rshift>,1,1,583513,327
CONTROL_TS_8_A,3,test,R,215,1,656,391,R,1,<rshift>,1,1,584513,397
CONTROL_TS_8_A,3,test,R,216,2,856,391,R,1,<rshift>,1,1,585513,646
CONTROL_TS_8_A,3,test,R,217,2,856,391,R,1,<rshift>,1,1,586513,385
CONTROL_TS_8_A,3,test,R,218,4,856,591,R,1,<rshift>,1,1,587513,322
CONTROL_TS_8_A,3,test,R,219,1,656,391,R,1,<rshift>,1,1,588513,379
CONTROL_TS_8_A,3,test,R,220,4,856,591,R,1,<rshift>,1,1,589513,372
CONTROL_TS_8_A,3,test,R,221,1,656,391,R,1,<rshift>,1,1,590514,341
CONTROL_TS_8_A,3,test,R,222,2,856,391,R,1,<rshift>,1,1,591513,290
CONTROL_TS_8_A,3,test,R,223,1,656,391,R,1,<rshift>,1,1,592513,340
CONTROL_TS_8_A,3,test,R,224,1,656,391,R,1,<rshift>,1,1,593513,377
CONTROL_TS_8_A,3,test,R,225,4,856,591,R,1,<rshift>,1,1,594513,444
CONTROL_TS_8_A,3,test,R,226,2,856,391,R,1,<rshift>,1,1,595513,359
CONTROL_TS_8_A,3,test,R,227,4,856,591,R,1,<rshift>,1,1,596513,445
CONTROL_TS_8_A,3,test,R,228,1,656,391,R,1,<rshift>,1,1,597513,430
CONTROL_TS_8_A,3,test,R,229,2,856,391,R,1,<rshift>,1,1,598513,369
CONTROL_TS_8_A,3,test,R,230,4,856,591,R,1,<rshift>,1,1,599513,456
CONTROL_TS_8_A,3,test,R,231,4,856,591,R,1,<rshift>,1,1,600513,393
CONTROL_TS_8_A,3,test,R,232,4,856,591,R,1,<rshift>,1,1,601513,371
CONTROL_TS_8_A,3,test,R,233,4,856,591,R,1,<rshift>,1,1,602513,376
CONTROL_TS_8_A,3,test,R,234,1,656,391,R,1,<rshift>,1,1,603513,378
CONTROL_TS_8_A,3,test,R,235,1,656,391,R,1,<rshift>,1,1,604513,357
CONTROL_TS_8_A,3,test,R,236,3,656,591,R,1,<rshift>,1,1,605513,391
CONTROL_TS_8_A,3,test,R,237,1,656,391,R,1,<rshift>,1,1,606513,369
CONTROL_TS_8_A,3,test,R,238,3,656,591,P,0,<rshift>,1,0,607513,431
CONTROL_TS_8_A,3,test,R,239,2,856,391,R,1,<rshift>,1,1,608513,372
CONTROL_TS_8_A,3,test,R,240,1,656,391,R,1,<rshift>,1,1,609513,407
CONTROL_TS_8_A,3,test,R,241,4,856,591,R,1,<rshift>,1,1,610513,356
CONTROL_TS_8_A,3,test,R,242,1,656,391,R,1,<rshift>,1,1,611513,495
CONTROL_TS_8_A,3,test,R,243,3,656,591,R,1,<rshift>,1,1,612513,394
CONTROL_TS_8_A,3,test,R,244,1,656,391,R,1,<rshift>,1,1,613513,379
CONTROL_TS_8_A,3,test,R,245,4,856,591,R,1,<rshift>,1,1,614513,355
CONTROL_TS_8_A,3,test,R,246,3,656,591,R,1,<rshift>,1,1,615513,422
CONTROL_TS_8_A,3,test,R,247,4,856,591,R,1,<rshift>,1,1,616513,382
CONTROL_TS_8_A,3,test,R,248,4,856,591,R,1,<rshift>,1,1,617513,375
CONTROL_TS_8_A,3,test,R,249,1,656,391,P,0,<rshift>,1,0,618513,349
CONTROL_TS_8_A,3,test,R,250,1,656,391,R,1,<rshift>,1,1,619514,423
CONTROL_TS_8_A,3,test,R,251,3,656,591,R,1,<rshift>,1,1,620513,408
CONTROL_TS_8_A,3,test,R,252,1,656,391,R,1,<rshift>,1,1,621513,356
CONTROL_TS_8_A,3,test,R,253,1,656,391,R,1,<rshift>,1,1,622513,359
CONTROL_TS_8_A,3,test,R,254,4,856,591,P,0,<rshift>,1,0,623513,393
CONTROL_TS_8_A,3,test,R,255,1,656,391,R,1,<rshift>,1,1,624513,484
CONTROL_TS_8_A,3,test,R,256,3,656,591,R,1,<rshift>,1,1,625513,412
CONTROL_TS_8_A,3,test,R,257,3,656,591,R,1,<rshift>,1,1,626513,378
CONTROL_TS_8_A,3,test,R,258,4,856,591,R,1,<rshift>,1,1,627513,521
CONTROL_TS_8_A,3,test,R,259,1,656,391,R,1,<rshift>,1,1,628513,521
CONTROL_TS_8_A,3,test,R,260,4,856,591,R,1,<rshift>,1,1,629513,418
CONTROL_TS_8_A,3,test,R,261,2,856,391,P,0,<rshift>,1,0,630513,363
CONTROL_TS_8_A,3,test,R,262,1,656,391,R,1,<rshift>,1,1,631513,357
CONTROL_TS_8_A,3,test,R,263,1,656,391,R,1,<rshift>,1,1,632513,521
CONTROL_TS_8_A,3,test,R,264,4,856,591,R,1,<rshift>,1,1,633513,499
CONTROL_TS_8_A,3,test,R,265,4,856,591,R,1,<rshift>,1,1,634513,687
CONTROL_TS_8_A,3,test,R,266,4,856,591,P,0,<rshift>,1,0,635513,467
CONTROL_TS_8_A,3,test,R,267,4,856,591,R,1,<rshift>,1,1,636513,398
CONTROL_TS_8_A,3,test,R,268,2,856,391,R,1,<rshift>,1,1,637513,310
CONTROL_TS_8_A,3,test,R,269,4,856,591,R,1,<rshift>,1,1,638513,379
CONTROL_TS_8_A,3,test,R,270,4,856,591,R,1,<rshift>,1,1,639514,367
CONTROL_TS_8_A,3,test,R,271,2,856,391,P,0,<rshift>,1,0,640513,335
CONTROL_TS_8_A,3,test,R,272,2,856,391,R,1,<rshift>,1,1,641513,385
CONTROL_TS_8_A,3,test,R,273,3,656,591,R,1,<rshift>,1,1,642513,341
CONTROL_TS_8_A,3,test,R,274,2,856,391,R,1,<rshift>,1,1,643513,357
CONTROL_TS_8_A,3,test,R,275,1,656,391,P,0,<rshift>,1,0,644514,471
CONTROL_TS_8_A,3,test,R,276,2,856,391,R,1,<rshift>,1,1,645513,464
CONTROL_TS_8_A,3,test,R,277,4,856,591,R,1,<rshift>,1,1,646513,487
CONTROL_TS_8_A,3,test,R,278,2,856,391,R,1,<rshift>,1,1,647513,527
CONTROL_TS_8_A,3,test,R,279,1,656,391,R,1,<rshift>,1,1,648513,442
CONTROL_TS_8_A,3,test,R,280,2,856,391,P,0,NONE,0,1,649513,950
CONTROL_TS_8_A,3,test,R,281,4,856,591,R,1,<rshift>,1,1,650513,577
CONTROL_TS_8_A,3,test,R,282,2,856,391,R,1,<rshift>,1,1,651513,360
CONTROL_TS_8_A,3,test,R,283,2,856,391,R,1,<rshift>,1,1,652513,341
CONTROL_TS_8_A,3,test,R,284,1,656,391,R,1,<rshift>,1,1,653513,390
CONTROL_TS_8_A,3,test,R,285,3,656,591,R,1,<rshift>,1,1,654513,363
CONTROL_TS_8_A,3,test,R,286,4,856,591,R,1,<rshift>,1,1,655513,339
CONTROL_TS_8_A,3,test,R,287,4,856,591,R,1,<rshift>,1,1,656513,378
CONTROL_TS_8_A,3,test,R,288,1,656,391,R,1,<rshift>,1,1,657513,461
CONTROL_TS_8_A,3,test,R,289,4,856,591,R,1,<rshift>,1,1,658513,439
CONTROL_TS_8_A,3,test,R,290,2,856,391,R,1,<rshift>,1,1,659513,386
CONTROL_TS_8_A,3,test,R,291,4,856,591,R,1,<rshift>,1,1,660513,488
CONTROL_TS_8_A,3,test,R,292,4,856,591,R,1,<rshift>,1,1,661513,440
CONTROL_TS_8_A,3,test,R,293,1,656,391,R,1,<rshift>,1,1,662513,521
CONTROL_TS_8_A,3,test,R,294,3,656,591,R,1,<rshift>,1,1,663513,485
CONTROL_TS_8_A,3,test,R,295,1,656,391,P,0,NONE,0,1,664513,950
CONTROL_TS_8_A,3,test,R,296,4,856,591,R,1,<rshift>,1,1,665513,431
CONTROL_TS_8_A,3,test,R,297,2,856,391,R,1,<rshift>,1,1,666513,356
CONTROL_TS_8_A,3,test,R,298,3,656,591,R,1,<rshift>,1,1,667513,430
CONTROL_TS_8_A,3,test,R,299,2,856,391,R,1,<rshift>,1,1,668513,435
CONTROL_TS_8_A,3,test,R,300,1,656,391,R,1,<rshift>,1,1,669513,381
