subnum,block,type,correctresponse,trial,choice,x,y,stim,present,response,responded,corr,starttime,rt
Control_TS_2_A,0,practice,P,1,4,820,550,P,1,<rshift>,1,1,26800,576
Control_TS_2_A,0,practice,P,2,3,620,550,P,1,<rshift>,1,1,27799,545
Control_TS_2_A,0,practice,P,3,1,620,350,R,0,NONE,0,1,28799,950
Control_TS_2_A,0,practice,P,4,3,620,550,P,1,<rshift>,1,1,29798,362
Control_TS_2_A,0,practice,P,5,4,820,550,P,1,<rshift>,1,1,30798,350
Control_TS_2_A,0,practice,P,6,1,620,350,P,1,<rshift>,1,1,31798,515
Control_TS_2_A,0,practice,P,7,3,620,550,P,1,<rshift>,1,1,32798,373
Control_TS_2_A,0,practice,P,8,1,620,350,P,1,<rshift>,1,1,33798,368
Control_TS_2_A,0,practice,P,9,4,820,550,P,1,<rshift>,1,1,34798,373
Control_TS_2_A,0,practice,P,10,2,820,350,R,0,NONE,0,1,35799,950
Control_TS_2_A,1,test,P,1,1,620,350,P,1,<rshift>,1,1,42127,646
Control_TS_2_A,1,test,P,2,3,620,550,P,1,<rshift>,1,1,43126,416
Control_TS_2_A,1,test,P,3,4,820,550,P,1,<rshift>,1,1,44126,402
Control_TS_2_A,1,test,P,4,4,820,550,P,1,<rshift>,1,1,45126,371
Control_TS_2_A,1,test,P,5,2,820,350,P,1,<rshift>,1,1,46127,339
Control_TS_2_A,1,test,P,6,3,620,550,R,0,NONE,0,1,47126,950
Control_TS_2_A,1,test,P,7,3,620,550,P,1,<rshift>,1,1,48126,515
Control_TS_2_A,1,test,P,8,1,620,350,P,1,<rshift>,1,1,49126,400
Control_TS_2_A,1,test,P,9,4,820,550,P,1,<rshift>,1,1,50126,377
Control_TS_2_A,1,test,P,10,4,820,550,P,1,<rshift>,1,1,51126,354
Control_TS_2_A,1,test,P,11,4,820,550,P,1,<rshift>,1,1,52126,374
Control_TS_2_A,1,test,P,12,1,620,350,P,1,<rshift>,1,1,53126,375
Control_TS_2_A,1,test,P,13,1,620,350,P,1,<rshift>,1,1,54126,394
Control_TS_2_A,1,test,P,14,2,820,350,P,1,<rshift>,1,1,55126,364
Control_TS_2_A,1,test,P,15,3,620,550,R,0,NONE,0,1,56126,950
Control_TS_2_A,1,test,P,16,3,620,550,P,1,<rshift>,1,1,57126,466
Control_TS_2_A,1,test,P,17,4,820,550,P,1,<rshift>,1,1,58126,440
Control_TS_2_A,1,test,P,18,3,620,550,P,1,<rshift>,1,1,59126,448
Control_TS_2_A,1,test,P,19,4,820,550,R,0,NONE,0,1,60126,950
Control_TS_2_A,1,test,P,20,2,820,350,R,0,NONE,0,1,61126,950
Control_TS_2_A,1,test,P,21,3,620,550,R,0,NONE,0,1,62126,950
Control_TS_2_A,1,test,P,22,2,820,350,P,1,<rshift>,1,1,63126,407
Control_TS_2_A,1,test,P,23,1,620,350,P,1,<rshift>,1,1,64127,459
Control_TS_2_A,1,test,P,24,2,820,350,P,1,<rshift>,1,1,65127,436
Control_TS_2_A,1,test,P,25,4,820,550,R,0,NONE,0,1,66126,950
Control_TS_2_A,1,test,P,26,3,620,550,P,1,<rshift>,1,1,67126,327
Control_TS_2_A,1,test,P,27,1,620,350,P,1,<rshift>,1,1,68126,393
Control_TS_2_A,1,test,P,28,4,820,550,P,1,<rshift>,1,1,69126,434
Control_TS_2_A,1,test,P,29,1,620,350,P,1,<rshift>,1,1,70126,454
Control_TS_2_A,1,test,P,30,4,820,550,P,1,<rshift>,1,1,71126,397
Control_TS_2_A,1,test,P,31,3,620,550,R,0,NONE,0,1,72126,950
Control_TS_2_A,1,test,P,32,4,820,550,R,0,NONE,0,1,73126,950
Control_TS_2_A,1,test,P,33,4,820,550,P,1,<rshift>,1,1,74126,496
Control_TS_2_A,1,test,P,34,1,620,350,P,1,<rshift>,1,1,75126,462
Control_TS_2_A,1,test,P,35,4,820,550,R,0,NONE,0,1,76127,950
Control_TS_2_A,1,test,P,36,4,820,550,P,1,<rshift>,1,1,77126,347
Control_TS_2_A,1,test,P,37,3,620,550,R,0,NONE,0,1,78126,950
Control_TS_2_A,1,test,P,38,4,820,550,P,1,<rshift>,1,1,79126,381
Control_TS_2_A,1,test,P,39,2,820,350,P,1,<rshift>,1,1,80126,438
Control_TS_2_A,1,test,P,40,4,820,550,P,1,<rshift>,1,1,81126,456
Control_TS_2_A,1,test,P,41,3,620,550,P,1,<rshift>,1,1,82126,472
Control_TS_2_A,1,test,P,42,2,820,350,P,1,<rshift>,1,1,83127,462
Control_TS_2_A,1,test,P,43,1,620,350,R,0,NONE,0,1,84126,950
Control_TS_2_A,1,test,P,44,4,820,550,P,1,<rshift>,1,1,85126,365
Control_TS_2_A,1,test,P,45,4,820,550,P,1,<rshift>,1,1,86126,396
Control_TS_2_A,1,test,P,46,1,620,350,R,0,NONE,0,1,87126,950
Control_TS_2_A,1,test,P,47,3,620,550,P,1,<rshift>,1,1,88126,464
Control_TS_2_A,1,test,P,48,3,620,550,P,1,<rshift>,1,1,89127,445
Control_TS_2_A,1,test,P,49,4,820,550,P,1,<rshift>,1,1,90126,420
Control_TS_2_A,1,test,P,50,4,820,550,P,1,<rshift>,1,1,91126,477
Control_TS_2_A,1,test,P,51,2,820,350,P,1,<rshift>,1,1,92126,499
Control_TS_2_A,1,test,P,52,4,820,550,P,1,<rshift>,1,1,93127,454
Control_TS_2_A,1,test,P,53,4,820,550,P,1,<rshift>,1,1,94126,410
Control_TS_2_A,1,test,P,54,4,820,550,P,1,<rshift>,1,1,95126,424
Control_TS_2_A,1,test,P,55,1,620,350,P,1,<rshift>,1,1,96126,516
Control_TS_2_A,1,test,P,56,1,620,350,R,0,NONE,0,1,97126,950
Control_TS_2_A,1,test,P,57,3,620,550,P,1,<rshift>,1,1,98126,384
Control_TS_2_A,1,test,P,58,4,820,550,P,1,<rshift>,1,1,99126,420
Control_TS_2_A,1,test,P,59,4,820,550,P,1,<rshift>,1,1,100127,434
Control_TS_2_A,1,test,P,60,1,620,350,P,1,<rshift>,1,1,101127,468
Control_TS_2_A,1,test,P,61,4,820,550,P,1,<rshift>,1,1,102126,383
Control_TS_2_A,1,test,P,62,2,820,350,P,1,<rshift>,1,1,103126,404
Control_TS_2_A,1,test,P,63,3,620,550,P,1,<rshift>,1,1,104126,399
Control_TS_2_A,1,test,P,64,2,820,350,P,1,<rshift>,1,1,105126,380
Control_TS_2_A,1,test,P,65,2,820,350,P,1,<rshift>,1,1,106127,375
Control_TS_2_A,1,test,P,66,3,620,550,P,1,<rshift>,1,1,107126,440
Control_TS_2_A,1,test,P,67,4,820,550,P,1,<rshift>,1,1,108126,465
Control_TS_2_A,1,test,P,68,4,820,550,P,1,<rshift>,1,1,109127,409
Control_TS_2_A,1,test,P,69,4,820,550,P,1,<rshift>,1,1,110126,496
Control_TS_2_A,1,test,P,70,1,620,350,R,0,NONE,0,1,111126,950
Control_TS_2_A,1,test,P,71,4,820,550,P,1,<rshift>,1,1,112126,455
Control_TS_2_A,1,test,P,72,2,820,350,P,1,<rshift>,1,1,113126,469
Control_TS_2_A,1,test,P,73,2,820,350,P,1,<rshift>,1,1,114126,445
Control_TS_2_A,1,test,P,74,2,820,350,P,1,<rshift>,1,1,115126,432
Control_TS_2_A,1,test,P,75,3,620,550,P,1,<rshift>,1,1,116126,479
Control_TS_2_A,1,test,P,76,4,820,550,P,1,<rshift>,1,1,117126,480
Control_TS_2_A,1,test,P,77,2,820,350,P,1,<rshift>,1,1,118126,489
Control_TS_2_A,1,test,P,78,3,620,550,P,1,<rshift>,1,1,119126,443
Control_TS_2_A,1,test,P,79,4,820,550,P,1,<rshift>,1,1,120127,366
Control_TS_2_A,1,test,P,80,2,820,350,R,0,NONE,0,1,121126,950
Control_TS_2_A,1,test,P,81,3,620,550,P,1,<rshift>,1,1,122126,463
Control_TS_2_A,1,test,P,82,3,620,550,P,1,<rshift>,1,1,123126,439
Control_TS_2_A,1,test,P,83,3,620,550,P,1,<rshift>,1,1,124126,429
Control_TS_2_A,1,test,P,84,2,820,350,P,1,<rshift>,1,1,125126,420
Control_TS_2_A,1,test,P,85,1,620,350,P,1,<rshift>,1,1,126126,615
Control_TS_2_A,1,test,P,86,4,820,550,P,1,<rshift>,1,1,127126,448
Control_TS_2_A,1,test,P,87,4,820,550,P,1,<rshift>,1,1,128126,363
Control_TS_2_A,1,test,P,88,3,620,550,P,1,<rshift>,1,1,129126,410
Control_TS_2_A,1,test,P,89,1,620,350,R,0,NONE,0,1,130126,950
Control_TS_2_A,1,test,P,90,3,620,550,P,1,<rshift>,1,1,131126,417
Control_TS_2_A,1,test,P,91,3,620,550,P,1,<rshift>,1,1,132126,436
Control_TS_2_A,1,test,P,92,4,820,550,R,0,NONE,0,1,133126,950
Control_TS_2_A,1,test,P,93,1,620,350,P,1,<rshift>,1,1,134126,440
Control_TS_2_A,1,test,P,94,3,620,550,P,1,<rshift>,1,1,135126,464
Control_TS_2_A,1,test,P,95,4,820,550,P,1,<rshift>,1,1,136126,467
Control_TS_2_A,1,test,P,96,3,620,550,R,0,NONE,0,1,137126,950
Control_TS_2_A,1,test,P,97,4,820,550,P,1,<rshift>,1,1,138126,373
Control_TS_2_A,1,test,P,98,1,620,350,R,0,NONE,0,1,139126,950
Control_TS_2_A,1,test,P,99,1,620,350,P,1,<rshift>,1,1,140126,515
Control_TS_2_A,1,test,P,100,2,820,350,P,1,<rshift>,1,1,141126,476
Control_TS_2_A,1,test,P,101,3,620,550,P,1,<rshift>,1,1,142126,556
Control_TS_2_A,1,test,P,102,4,820,550,P,1,<rshift>,1,1,143126,475
Control_TS_2_A,1,test,P,103,3,620,550,P,1,<rshift>,1,1,144126,477
Control_TS_2_A,1,test,P,104,2,820,350,P,1,<rshift>,1,1,145127,424
Control_TS_2_A,1,test,P,105,1,620,350,P,1,<rshift>,1,1,146126,428
Control_TS_2_A,1,test,P,106,2,820,350,P,1,<rshift>,1,1,147126,430
Control_TS_2_A,1,test,P,107,4,820,550,P,1,<rshift>,1,1,148126,467
Control_TS_2_A,1,test,P,108,2,820,350,R,0,NONE,0,1,149126,950
Control_TS_2_A,1,test,P,109,3,620,550,P,1,<rshift>,1,1,150126,479
Control_TS_2_A,1,test,P,110,3,620,550,P,1,<rshift>,1,1,151126,536
Control_TS_2_A,1,test,P,111,1,620,350,P,1,<rshift>,1,1,152126,515
Control_TS_2_A,1,test,P,112,2,820,350,R,0,NONE,0,1,153126,950
Control_TS_2_A,1,test,P,113,1,620,350,P,1,<rshift>,1,1,154126,458
Control_TS_2_A,1,test,P,114,4,820,550,R,0,NONE,0,1,155126,950
Control_TS_2_A,1,test,P,115,3,620,550,P,1,<rshift>,1,1,156126,385
Control_TS_2_A,1,test,P,116,3,620,550,R,0,NONE,0,1,157126,950
Control_TS_2_A,1,test,P,117,4,820,550,P,1,<rshift>,1,1,158126,439
Control_TS_2_A,1,test,P,118,1,620,350,R,0,NONE,0,1,159126,950
Control_TS_2_A,1,test,P,119,1,620,350,P,1,<rshift>,1,1,160126,454
Control_TS_2_A,1,test,P,120,2,820,350,P,1,<rshift>,1,1,161126,470
Control_TS_2_A,1,test,P,121,4,820,550,R,0,NONE,0,1,162127,950
Control_TS_2_A,1,test,P,122,4,820,550,P,1,<rshift>,1,1,163126,424
Control_TS_2_A,1,test,P,123,4,820,550,P,1,<rshift>,1,1,164126,474
Control_TS_2_A,1,test,P,124,1,620,350,P,1,<rshift>,1,1,165126,564
Control_TS_2_A,1,test,P,125,4,820,550,R,0,NONE,0,1,166126,950
Control_TS_2_A,1,test,P,126,3,620,550,P,1,<rshift>,1,1,167126,405
Control_TS_2_A,1,test,P,127,3,620,550,P,1,<rshift>,1,1,168126,490
Control_TS_2_A,1,test,P,128,2,820,350,P,1,<rshift>,1,1,169126,496
Control_TS_2_A,1,test,P,129,1,620,350,P,1,<rshift>,1,1,170126,519
Control_TS_2_A,1,test,P,130,2,820,350,P,1,<rshift>,1,1,171126,571
Control_TS_2_A,1,test,P,131,2,820,350,R,0,NONE,0,1,172126,950
Control_TS_2_A,1,test,P,132,2,820,350,P,1,<rshift>,1,1,173126,562
Control_TS_2_A,1,test,P,133,4,820,550,P,1,<rshift>,1,1,174126,464
Control_TS_2_A,1,test,P,134,2,820,350,P,1,<rshift>,1,1,175126,435
Control_TS_2_A,1,test,P,135,4,820,550,P,1,<rshift>,1,1,176126,429
Control_TS_2_A,1,test,P,136,4,820,550,P,1,<rshift>,1,1,177126,375
Control_TS_2_A,1,test,P,137,3,620,550,R,0,NONE,0,1,178126,950
Control_TS_2_A,1,test,P,138,1,620,350,R,0,<rshift>,1,0,179126,350
Control_TS_2_A,1,test,P,139,1,620,350,P,1,<rshift>,1,1,180126,591
Control_TS_2_A,1,test,P,140,3,620,550,P,1,<rshift>,1,1,181126,461
Control_TS_2_A,1,test,P,141,1,620,350,P,1,<rshift>,1,1,182126,515
Control_TS_2_A,1,test,P,142,2,820,350,P,1,<rshift>,1,1,183126,483
Control_TS_2_A,1,test,P,143,1,620,350,P,1,<rshift>,1,1,184127,471
Control_TS_2_A,1,test,P,144,4,820,550,P,1,<rshift>,1,1,185127,489
Control_TS_2_A,1,test,P,145,3,620,550,R,0,NONE,0,1,186126,950
Control_TS_2_A,1,test,P,146,3,620,550,P,1,<rshift>,1,1,187126,616
Control_TS_2_A,1,test,P,147,1,620,350,P,1,<rshift>,1,1,188126,515
Control_TS_2_A,1,test,P,148,2,820,350,P,1,<rshift>,1,1,189126,436
Control_TS_2_A,1,test,P,149,4,820,550,P,1,<rshift>,1,1,190126,424
Control_TS_2_A,1,test,P,150,1,620,350,P,1,<rshift>,1,1,191126,462
Control_TS_2_A,1,test,P,151,1,620,350,P,1,<rshift>,1,1,192126,548
Control_TS_2_A,1,test,P,152,4,820,550,P,1,<rshift>,1,1,193126,444
Control_TS_2_A,1,test,P,153,4,820,550,P,1,<rshift>,1,1,194126,443
Control_TS_2_A,1,test,P,154,3,620,550,P,1,<rshift>,1,1,195126,432
Control_TS_2_A,1,test,P,155,3,620,550,P,1,<rshift>,1,1,196126,453
Control_TS_2_A,1,test,P,156,3,620,550,P,1,<rshift>,1,1,197126,460
Control_TS_2_A,1,test,P,157,4,820,550,R,0,NONE,0,1,198126,950
Control_TS_2_A,1,test,P,158,1,620,350,R,0,NONE,0,1,199126,950
Control_TS_2_A,1,test,P,159,3,620,550,P,1,<rshift>,1,1,200126,411
Control_TS_2_A,1,test,P,160,4,820,550,P,1,<rshift>,1,1,201126,623
Control_TS_2_A,1,test,P,161,3,620,550,P,1,<rshift>,1,1,202126,490
Control_TS_2_A,1,test,P,162,1,620,350,P,1,<rshift>,1,1,203126,457
Control_TS_2_A,1,test,P,163,4,820,550,P,1,<rshift>,1,1,204126,526
Control_TS_2_A,1,test,P,164,2,820,350,P,1,<rshift>,1,1,205126,467
Control_TS_2_A,1,test,P,165,2,820,350,P,1,<rshift>,1,1,206126,448
Control_TS_2_A,1,test,P,166,2,820,350,P,1,<rshift>,1,1,207126,456
Control_TS_2_A,1,test,P,167,3,620,550,R,0,NONE,0,1,208126,950
Control_TS_2_A,1,test,P,168,4,820,550,P,1,<rshift>,1,1,209126,448
Control_TS_2_A,1,test,P,169,2,820,350,R,0,NONE,0,1,210126,950
Control_TS_2_A,1,test,P,170,1,620,350,R,0,NONE,0,1,211126,950
Control_TS_2_A,1,test,P,171,2,820,350,P,1,<rshift>,1,1,212126,415
Control_TS_2_A,1,test,P,172,3,620,550,R,0,NONE,0,1,213126,950
Control_TS_2_A,1,test,P,173,1,620,350,P,1,<rshift>,1,1,214126,435
Control_TS_2_A,1,test,P,174,3,620,550,P,1,<rshift>,1,1,215126,633
Control_TS_2_A,1,test,P,175,3,620,550,R,0,NONE,0,1,216126,950
Control_TS_2_A,1,test,P,176,3,620,550,R,0,NONE,0,1,217126,950
Control_TS_2_A,1,test,P,177,2,820,350,P,1,<rshift>,1,1,218126,360
Control_TS_2_A,1,test,P,178,1,620,350,R,0,NONE,0,1,219126,950
Control_TS_2_A,1,test,P,179,1,620,350,P,1,<rshift>,1,1,220126,455
Control_TS_2_A,1,test,P,180,1,620,350,P,1,<rshift>,1,1,221126,485
Control_TS_2_A,1,test,P,181,1,620,350,P,1,<rshift>,1,1,222126,468
Control_TS_2_A,1,test,P,182,2,820,350,P,1,<rshift>,1,1,223126,515
Control_TS_2_A,1,test,P,183,1,620,350,P,1,<rshift>,1,1,224126,468
Control_TS_2_A,1,test,P,184,4,820,550,R,0,NONE,0,1,225126,950
Control_TS_2_A,1,test,P,185,4,820,550,P,1,<rshift>,1,1,226126,515
Control_TS_2_A,1,test,P,186,2,820,350,P,1,<rshift>,1,1,227126,563
Control_TS_2_A,1,test,P,187,2,820,350,R,0,NONE,0,1,228126,950
Control_TS_2_A,1,test,P,188,2,820,350,P,1,<rshift>,1,1,229126,612
Control_TS_2_A,1,test,P,189,2,820,350,P,1,<rshift>,1,1,230126,473
Control_TS_2_A,1,test,P,190,3,620,550,P,1,<rshift>,1,1,231126,471
Control_TS_2_A,1,test,P,191,3,620,550,P,1,<rshift>,1,1,232127,424
Control_TS_2_A,1,test,P,192,1,620,350,P,1,<rshift>,1,1,233127,389
Control_TS_2_A,1,test,P,193,4,820,550,R,0,NONE,0,1,234127,950
Control_TS_2_A,1,test,P,194,2,820,350,P,1,<rshift>,1,1,235126,353
Control_TS_2_A,1,test,P,195,3,620,550,P,1,<rshift>,1,1,236126,340
Control_TS_2_A,1,test,P,196,4,820,550,P,1,<rshift>,1,1,237126,529
Control_TS_2_A,1,test,P,197,3,620,550,P,1,<rshift>,1,1,238127,461
Control_TS_2_A,1,test,P,198,3,620,550,P,1,<rshift>,1,1,239126,483
Control_TS_2_A,1,test,P,199,3,620,550,P,1,<rshift>,1,1,240126,475
Control_TS_2_A,1,test,P,200,2,820,350,R,0,NONE,0,1,241126,950
Control_TS_2_A,1,test,P,201,2,820,350,P,1,<rshift>,1,1,242126,461
Control_TS_2_A,1,test,P,202,2,820,350,P,1,<rshift>,1,1,243127,522
Control_TS_2_A,1,test,P,203,1,620,350,P,1,<rshift>,1,1,244126,477
Control_TS_2_A,1,test,P,204,4,820,550,P,1,<rshift>,1,1,245126,482
Control_TS_2_A,1,test,P,205,3,620,550,R,0,NONE,0,1,246126,950
Control_TS_2_A,1,test,P,206,3,620,550,P,1,<rshift>,1,1,247126,515
Control_TS_2_A,1,test,P,207,3,620,550,R,0,NONE,0,1,248126,950
Control_TS_2_A,1,test,P,208,3,620,550,P,1,<rshift>,1,1,249126,452
Control_TS_2_A,1,test,P,209,1,620,350,R,0,NONE,0,1,250126,950
Control_TS_2_A,1,test,P,210,4,820,550,P,1,<rshift>,1,1,251126,390
Control_TS_2_A,1,test,P,211,3,620,550,P,1,<rshift>,1,1,252127,477
Control_TS_2_A,1,test,P,212,2,820,350,P,1,<rshift>,1,1,253126,431
Control_TS_2_A,1,test,P,213,4,820,550,P,1,<rshift>,1,1,254126,450
Control_TS_2_A,1,test,P,214,2,820,350,P,1,<rshift>,1,1,255126,398
Control_TS_2_A,1,test,P,215,3,620,550,P,1,<rshift>,1,1,256126,427
Control_TS_2_A,1,test,P,216,1,620,350,P,1,<rshift>,1,1,257126,428
Control_TS_2_A,1,test,P,217,2,820,350,R,0,NONE,0,1,258126,951
Control_TS_2_A,1,test,P,218,2,820,350,P,1,<rshift>,1,1,259126,532
Control_TS_2_A,1,test,P,219,3,620,550,R,0,NONE,0,1,260126,951
Control_TS_2_A,1,test,P,220,2,820,350,P,1,<rshift>,1,1,261126,366
Control_TS_2_A,1,test,P,221,1,620,350,R,0,NONE,0,1,262126,951
Control_TS_2_A,1,test,P,222,1,620,350,P,1,<rshift>,1,1,263126,534
Control_TS_2_A,1,test,P,223,4,820,550,P,1,<rshift>,1,1,264126,476
Control_TS_2_A,1,test,P,224,4,820,550,P,1,<rshift>,1,1,265126,487
Control_TS_2_A,1,test,P,225,4,820,550,P,1,<rshift>,1,1,266126,391
Control_TS_2_A,1,test,P,226,1,620,350,P,1,<rshift>,1,1,267126,416
Control_TS_2_A,1,test,P,227,1,620,350,P,1,<rshift>,1,1,268126,459
Control_TS_2_A,1,test,P,228,4,820,550,P,1,<rshift>,1,1,269126,452
Control_TS_2_A,1,test,P,229,3,620,550,P,1,<rshift>,1,1,270127,434
Control_TS_2_A,1,test,P,230,4,820,550,P,1,<rshift>,1,1,271126,392
Control_TS_2_A,1,test,P,231,1,620,350,P,1,<rshift>,1,1,272126,444
Control_TS_2_A,1,test,P,232,1,620,350,P,1,<rshift>,1,1,273126,438
Control_TS_2_A,1,test,P,233,3,620,550,P,1,<rshift>,1,1,274126,515
Control_TS_2_A,1,test,P,234,3,620,550,P,1,<rshift>,1,1,275126,392
Control_TS_2_A,1,test,P,235,1,620,350,P,1,<rshift>,1,1,276127,386
Control_TS_2_A,1,test,P,236,2,820,350,P,1,<rshift>,1,1,277126,528
Control_TS_2_A,1,test,P,237,2,820,350,P,1,NONE,0,0,278127,950
Control_TS_2_A,1,test,P,238,1,620,350,R,0,<rshift>,1,0,279126,40
Control_TS_2_A,1,test,P,239,2,820,350,P,1,NONE,0,0,280127,950
Control_TS_2_A,1,test,P,240,2,820,350,P,1,<rshift>,1,1,281126,436
Control_TS_2_A,1,test,P,241,1,620,350,P,1,<rshift>,1,1,282126,416
Control_TS_2_A,1,test,P,242,4,820,550,P,1,<rshift>,1,1,283126,403
Control_TS_2_A,1,test,P,243,4,820,550,R,0,NONE,0,1,284126,950
Control_TS_2_A,1,test,P,244,2,820,350,P,1,<rshift>,1,1,285126,384
Control_TS_2_A,1,test,P,245,2,820,350,P,1,<rshift>,1,1,286127,429
Control_TS_2_A,1,test,P,246,1,620,350,R,0,NONE,0,1,287126,950
Control_TS_2_A,1,test,P,247,2,820,350,P,1,<rshift>,1,1,288126,371
Control_TS_2_A,1,test,P,248,4,820,550,P,1,<rshift>,1,1,289126,409
Control_TS_2_A,1,test,P,249,2,820,350,P,1,<rshift>,1,1,290126,383
Control_TS_2_A,1,test,P,250,2,820,350,R,0,NONE,0,1,291126,950
Control_TS_2_A,1,test,P,251,3,620,550,R,0,<rshift>,1,0,292126,393
Control_TS_2_A,1,test,P,252,2,820,350,P,1,<rshift>,1,1,293126,407
Control_TS_2_A,1,test,P,253,4,820,550,P,1,<rshift>,1,1,294126,373
Control_TS_2_A,1,test,P,254,2,820,350,P,1,<rshift>,1,1,295126,380
Control_TS_2_A,1,test,P,255,1,620,350,P,1,<rshift>,1,1,296126,492
Control_TS_2_A,1,test,P,256,1,620,350,P,1,<rshift>,1,1,297126,451
Control_TS_2_A,1,test,P,257,3,620,550,P,1,<rshift>,1,1,298126,426
Control_TS_2_A,1,test,P,258,2,820,350,R,0,NONE,0,1,299126,950
Control_TS_2_A,1,test,P,259,1,620,350,P,1,<rshift>,1,1,300126,414
Control_TS_2_A,1,test,P,260,2,820,350,P,1,<rshift>,1,1,301127,527
Control_TS_2_A,1,test,P,261,1,620,350,R,0,NONE,0,1,302126,950
Control_TS_2_A,1,test,P,262,3,620,550,P,1,<rshift>,1,1,303126,515
Control_TS_2_A,1,test,P,263,1,620,350,P,1,<rshift>,1,1,304126,443
Control_TS_2_A,1,test,P,264,4,820,550,P,1,<rshift>,1,1,305126,399
Control_TS_2_A,1,test,P,265,1,620,350,P,1,<rshift>,1,1,306126,431
Control_TS_2_A,1,test,P,266,1,620,350,P,1,<rshift>,1,1,307126,404
Control_TS_2_A,1,test,P,267,1,620,350,P,1,<rshift>,1,1,308126,376
Control_TS_2_A,1,test,P,268,4,820,550,P,1,<rshift>,1,1,309126,360
Control_TS_2_A,1,test,P,269,1,620,350,P,1,<rshift>,1,1,310126,428
Control_TS_2_A,1,test,P,270,4,820,550,R,0,NONE,0,1,311127,950
Control_TS_2_A,1,test,P,271,2,820,350,P,1,<rshift>,1,1,312126,395
Control_TS_2_A,1,test,P,272,2,820,350,P,1,<rshift>,1,1,313126,423
Control_TS_2_A,1,test,P,273,2,820,350,P,1,<rshift>,1,1,314126,388
Control_TS_2_A,1,test,P,274,3,620,550,P,1,<rshift>,1,1,315126,494
Control_TS_2_A,1,test,P,275,4,820,550,P,1,<rshift>,1,1,316126,436
Control_TS_2_A,1,test,P,276,4,820,550,P,1,<rshift>,1,1,317126,368
Control_TS_2_A,1,test,P,277,1,620,350,P,1,<rshift>,1,1,318126,377
Control_TS_2_A,1,test,P,278,2,820,350,P,1,<rshift>,1,1,319126,325
Control_TS_2_A,1,test,P,279,2,820,350,P,1,<rshift>,1,1,320126,329
Control_TS_2_A,1,test,P,280,4,820,550,P,1,<rshift>,1,1,321126,343
Control_TS_2_A,1,test,P,281,3,620,550,R,0,<rshift>,1,0,322126,314
Control_TS_2_A,1,test,P,282,1,620,350,P,1,<rshift>,1,1,323126,479
Control_TS_2_A,1,test,P,283,3,620,550,P,1,<rshift>,1,1,324126,538
Control_TS_2_A,1,test,P,284,4,820,550,P,1,<rshift>,1,1,325126,515
Control_TS_2_A,1,test,P,285,2,820,350,P,1,<rshift>,1,1,326126,483
Control_TS_2_A,1,test,P,286,2,820,350,P,1,<rshift>,1,1,327126,456
Control_TS_2_A,1,test,P,287,2,820,350,P,1,<rshift>,1,1,328126,442
Control_TS_2_A,1,test,P,288,4,820,550,R,0,NONE,0,1,329126,950
Control_TS_2_A,1,test,P,289,4,820,550,P,1,<rshift>,1,1,330126,422
Control_TS_2_A,1,test,P,290,2,820,350,P,1,<rshift>,1,1,331126,423
Control_TS_2_A,1,test,P,291,2,820,350,P,1,<rshift>,1,1,332126,402
Control_TS_2_A,1,test,P,292,1,620,350,P,1,<rshift>,1,1,333126,472
Control_TS_2_A,1,test,P,293,1,620,350,P,1,<rshift>,1,1,334126,449
Control_TS_2_A,1,test,P,294,1,620,350,R,0,NONE,0,1,335126,950
Control_TS_2_A,1,test,P,295,4,820,550,P,1,<rshift>,1,1,336126,333
Control_TS_2_A,1,test,P,296,1,620,350,P,1,<rshift>,1,1,337126,401
Control_TS_2_A,1,test,P,297,1,620,350,P,1,<rshift>,1,1,338127,451
Control_TS_2_A,1,test,P,298,1,620,350,P,1,<rshift>,1,1,339126,433
Control_TS_2_A,1,test,P,299,3,620,550,P,1,<rshift>,1,1,340126,437
Control_TS_2_A,1,test,P,300,4,820,550,P,1,<rshift>,1,1,341126,354
Control_TS_2_A,2,practice,R,1,4,820,550,R,1,<rshift>,1,1,366425,550
Control_TS_2_A,2,practice,R,2,2,820,350,P,0,NONE,0,1,367425,950
Control_TS_2_A,2,practice,R,3,1,620,350,R,1,<rshift>,1,1,368425,342
Control_TS_2_A,2,practice,R,4,2,820,350,R,1,<rshift>,1,1,369425,435
Control_TS_2_A,2,practice,R,5,1,620,350,R,1,<rshift>,1,1,370425,437
Control_TS_2_A,2,practice,R,6,3,620,550,R,1,<rshift>,1,1,371425,455
Control_TS_2_A,2,practice,R,7,4,820,550,R,1,<rshift>,1,1,372425,417
Control_TS_2_A,2,practice,R,8,2,820,350,R,1,<rshift>,1,1,373425,424
Control_TS_2_A,2,practice,R,9,4,820,550,P,0,NONE,0,1,374425,950
Control_TS_2_A,2,practice,R,10,1,620,350,R,1,<rshift>,1,1,375425,225
Control_TS_2_A,3,test,R,1,2,820,350,R,1,<rshift>,1,1,382221,516
Control_TS_2_A,3,test,R,2,1,620,350,R,1,<rshift>,1,1,383220,413
Control_TS_2_A,3,test,R,3,2,820,350,R,1,<rshift>,1,1,384220,398
Control_TS_2_A,3,test,R,4,3,620,550,P,0,NONE,0,1,385220,950
Control_TS_2_A,3,test,R,5,3,620,550,R,1,<rshift>,1,1,386220,404
Control_TS_2_A,3,test,R,6,3,620,550,R,1,<rshift>,1,1,387220,410
Control_TS_2_A,3,test,R,7,1,620,350,R,1,<rshift>,1,1,388220,365
Control_TS_2_A,3,test,R,8,4,820,550,R,1,<rshift>,1,1,389220,365
Control_TS_2_A,3,test,R,9,3,620,550,R,1,<rshift>,1,1,390220,420
Control_TS_2_A,3,test,R,10,3,620,550,R,1,<rshift>,1,1,391220,478
Control_TS_2_A,3,test,R,11,2,820,350,R,1,<rshift>,1,1,392220,372
Control_TS_2_A,3,test,R,12,2,820,350,R,1,<rshift>,1,1,393220,365
Control_TS_2_A,3,test,R,13,1,620,350,P,0,<rshift>,1,0,394220,356
Control_TS_2_A,3,test,R,14,3,620,550,R,1,<rshift>,1,1,395220,265
Control_TS_2_A,3,test,R,15,1,620,350,R,1,<rshift>,1,1,396220,437
Control_TS_2_A,3,test,R,16,2,820,350,R,1,<rshift>,1,1,397220,351
Control_TS_2_A,3,test,R,17,1,620,350,R,1,<rshift>,1,1,398220,375
Control_TS_2_A,3,test,R,18,4,820,550,R,1,<rshift>,1,1,399220,353
Control_TS_2_A,3,test,R,19,2,820,350,P,0,<rshift>,1,0,400220,373
Control_TS_2_A,3,test,R,20,4,820,550,R,1,<rshift>,1,1,401220,320
Control_TS_2_A,3,test,R,21,1,620,350,P,0,<rshift>,1,0,402220,312
Control_TS_2_A,3,test,R,22,2,820,350,R,1,NONE,0,0,403221,950
Control_TS_2_A,3,test,R,23,3,620,550,P,0,<rshift>,1,0,404220,261
Control_TS_2_A,3,test,R,24,4,820,550,R,1,<rshift>,1,1,405220,315
Control_TS_2_A,3,test,R,25,3,620,550,P,0,NONE,0,1,406221,950
Control_TS_2_A,3,test,R,26,1,620,350,R,1,<rshift>,1,1,407220,604
Control_TS_2_A,3,test,R,27,1,620,350,R,1,<rshift>,1,1,408220,448
Control_TS_2_A,3,test,R,28,1,620,350,R,1,<rshift>,1,1,409220,395
Control_TS_2_A,3,test,R,29,4,820,550,R,1,<rshift>,1,1,410220,436
Control_TS_2_A,3,test,R,30,2,820,350,R,1,<rshift>,1,1,411220,397
Control_TS_2_A,3,test,R,31,4,820,550,R,1,<rshift>,1,1,412220,481
Control_TS_2_A,3,test,R,32,4,820,550,R,1,<rshift>,1,1,413220,425
Control_TS_2_A,3,test,R,33,3,620,550,P,0,NONE,0,1,414220,950
Control_TS_2_A,3,test,R,34,3,620,550,R,1,<rshift>,1,1,415220,619
Control_TS_2_A,3,test,R,35,1,620,350,R,1,<rshift>,1,1,416220,442
Control_TS_2_A,3,test,R,36,4,820,550,R,1,<rshift>,1,1,417221,397
Control_TS_2_A,3,test,R,37,2,820,350,P,0,NONE,0,1,418220,950
Control_TS_2_A,3,test,R,38,4,820,550,R,1,<rshift>,1,1,419220,429
Control_TS_2_A,3,test,R,39,3,620,550,P,0,NONE,0,1,420220,950
Control_TS_2_A,3,test,R,40,4,820,550,R,1,<rshift>,1,1,421220,409
Control_TS_2_A,3,test,R,41,4,820,550,P,0,NONE,0,1,422220,950
Control_TS_2_A,3,test,R,42,1,620,350,R,1,<rshift>,1,1,423220,377
Control_TS_2_A,3,test,R,43,2,820,350,R,1,<rshift>,1,1,424220,409
Control_TS_2_A,3,test,R,44,2,820,350,R,1,<rshift>,1,1,425220,432
Control_TS_2_A,3,test,R,45,2,820,350,R,1,<rshift>,1,1,426220,415
Control_TS_2_A,3,test,R,46,1,620,350,R,1,<rshift>,1,1,427220,559
Control_TS_2_A,3,test,R,47,3,620,550,R,1,<rshift>,1,1,428220,489
Control_TS_2_A,3,test,R,48,4,820,550,R,1,<rshift>,1,1,429220,398
Control_TS_2_A,3,test,R,49,2,820,350,R,1,<rshift>,1,1,430220,427
Control_TS_2_A,3,test,R,50,2,820,350,P,0,NONE,0,1,431220,950
Control_TS_2_A,3,test,R,51,3,620,550,P,0,NONE,0,1,432220,950
Control_TS_2_A,3,test,R,52,3,620,550,R,1,<rshift>,1,1,433220,491
Control_TS_2_A,3,test,R,53,3,620,550,R,1,<rshift>,1,1,434221,428
Control_TS_2_A,3,test,R,54,3,620,550,R,1,<rshift>,1,1,435221,401
Control_TS_2_A,3,test,R,55,2,820,350,R,1,<rshift>,1,1,436220,483
Control_TS_2_A,3,test,R,56,2,820,350,P,0,NONE,0,1,437220,950
Control_TS_2_A,3,test,R,57,1,620,350,R,1,<rshift>,1,1,438220,269
Control_TS_2_A,3,test,R,58,2,820,350,P,0,NONE,0,1,439220,950
Control_TS_2_A,3,test,R,59,3,620,550,R,1,<rshift>,1,1,440220,342
Control_TS_2_A,3,test,R,60,3,620,550,P,0,NONE,0,1,441220,950
Control_TS_2_A,3,test,R,61,2,820,350,R,1,<rshift>,1,1,442221,420
Control_TS_2_A,3,test,R,62,2,820,350,R,1,<rshift>,1,1,443221,446
Control_TS_2_A,3,test,R,63,4,820,550,R,1,<rshift>,1,1,444220,423
Control_TS_2_A,3,test,R,64,3,620,550,R,1,<rshift>,1,1,445220,412
Control_TS_2_A,3,test,R,65,3,620,550,R,1,<rshift>,1,1,446220,428
Control_TS_2_A,3,test,R,66,1,620,350,R,1,<rshift>,1,1,447221,434
Control_TS_2_A,3,test,R,67,4,820,550,P,0,NONE,0,1,448220,950
Control_TS_2_A,3,test,R,68,2,820,350,P,0,<rshift>,1,0,449220,325
Control_TS_2_A,3,test,R,69,3,620,550,R,1,<rshift>,1,1,450220,276
Control_TS_2_A,3,test,R,70,3,620,550,R,1,<rshift>,1,1,451220,374
Control_TS_2_A,3,test,R,71,3,620,550,R,1,<rshift>,1,1,452220,447
Control_TS_2_A,3,test,R,72,3,620,550,R,1,<rshift>,1,1,453220,415
Control_TS_2_A,3,test,R,73,4,820,550,P,0,NONE,0,1,454220,950
Control_TS_2_A,3,test,R,74,1,620,350,P,0,NONE,0,1,455220,950
Control_TS_2_A,3,test,R,75,2,820,350,R,1,<rshift>,1,1,456220,337
Control_TS_2_A,3,test,R,76,4,820,550,R,1,<rshift>,1,1,457220,533
Control_TS_2_A,3,test,R,77,1,620,350,R,1,<rshift>,1,1,458220,546
Control_TS_2_A,3,test,R,78,4,820,550,P,0,NONE,0,1,459220,950
Control_TS_2_A,3,test,R,79,4,820,550,P,0,NONE,0,1,460220,950
Control_TS_2_A,3,test,R,80,4,820,550,R,1,<rshift>,1,1,461220,529
Control_TS_2_A,3,test,R,81,1,620,350,R,1,<rshift>,1,1,462220,453
Control_TS_2_A,3,test,R,82,2,820,350,R,1,<rshift>,1,1,463220,377
Control_TS_2_A,3,test,R,83,3,620,550,P,0,NONE,0,1,464220,951
Control_TS_2_A,3,test,R,84,4,820,550,R,1,<rshift>,1,1,465220,261
Control_TS_2_A,3,test,R,85,3,620,550,R,1,<rshift>,1,1,466220,496
Control_TS_2_A,3,test,R,86,4,820,550,R,1,<rshift>,1,1,467220,459
Control_TS_2_A,3,test,R,87,1,620,350,R,1,<rshift>,1,1,468220,461
Control_TS_2_A,3,test,R,88,4,820,550,R,1,<rshift>,1,1,469220,400
Control_TS_2_A,3,test,R,89,1,620,350,R,1,<rshift>,1,1,470220,377
Control_TS_2_A,3,test,R,90,1,620,350,R,1,<rshift>,1,1,471221,432
Control_TS_2_A,3,test,R,91,2,820,350,R,1,<rshift>,1,1,472220,368
Control_TS_2_A,3,test,R,92,2,820,350,R,1,<rshift>,1,1,473220,383
Control_TS_2_A,3,test,R,93,2,820,350,R,1,<rshift>,1,1,474220,400
Control_TS_2_A,3,test,R,94,1,620,350,R,1,<rshift>,1,1,475220,486
Control_TS_2_A,3,test,R,95,3,620,550,R,1,<rshift>,1,1,476220,471
Control_TS_2_A,3,test,R,96,3,620,550,R,1,<rshift>,1,1,477220,429
Control_TS_2_A,3,test,R,97,3,620,550,R,1,<rshift>,1,1,478220,409
Control_TS_2_A,3,test,R,98,3,620,550,R,1,<rshift>,1,1,479220,396
Control_TS_2_A,3,test,R,99,2,820,350,P,0,NONE,0,1,480220,950
Control_TS_2_A,3,test,R,100,1,620,350,P,0,NONE,0,1,481220,950
Control_TS_2_A,3,test,R,101,3,620,550,R,1,<rshift>,1,1,482220,295
Control_TS_2_A,3,test,R,102,3,620,550,R,1,<rshift>,1,1,483220,435
Control_TS_2_A,3,test,R,103,2,820,350,R,1,<rshift>,1,1,484220,487
Control_TS_2_A,3,test,R,104,3,620,550,P,0,NONE,0,1,485220,950
Control_TS_2_A,3,test,R,105,2,820,350,R,1,<rshift>,1,1,486220,380
Control_TS_2_A,3,test,R,106,1,620,350,P,0,NONE,0,1,487220,950
Control_TS_2_A,3,test,R,107,4,820,550,R,1,<rshift>,1,1,488220,324
Control_TS_2_A,3,test,R,108,1,620,350,P,0,NONE,0,1,489220,950
Control_TS_2_A,3,test,R,109,1,620,350,R,1,<rshift>,1,1,490220,442
Control_TS_2_A,3,test,R,110,2,820,350,R,1,<rshift>,1,1,491220,422
Control_TS_2_A,3,test,R,111,3,620,550,P,0,NONE,0,1,492220,950
Control_TS_2_A,3,test,R,112,2,820,350,R,1,<rshift>,1,1,493220,294
Control_TS_2_A,3,test,R,113,2,820,350,R,1,<rshift>,1,1,494220,375
Control_TS_2_A,3,test,R,114,3,620,550,R,1,<rshift>,1,1,495220,404
Control_TS_2_A,3,test,R,115,1,620,350,P,0,NONE,0,1,496220,951
Control_TS_2_A,3,test,R,116,1,620,350,R,1,<rshift>,1,1,497220,413
Control_TS_2_A,3,test,R,117,3,620,550,P,0,NONE,0,1,498220,950
Control_TS_2_A,3,test,R,118,1,620,350,R,1,<rshift>,1,1,499220,111
Control_TS_2_A,3,test,R,119,1,620,350,R,1,<rshift>,1,1,500220,346
Control_TS_2_A,3,test,R,120,3,620,550,R,1,<rshift>,1,1,501220,407
Control_TS_2_A,3,test,R,121,4,820,550,P,0,NONE,0,1,502220,950
Control_TS_2_A,3,test,R,122,4,820,550,R,1,<rshift>,1,1,503220,429
Control_TS_2_A,3,test,R,123,3,620,550,P,0,NONE,0,1,504220,950
Control_TS_2_A,3,test,R,124,3,620,550,R,1,<rshift>,1,1,505220,434
Control_TS_2_A,3,test,R,125,3,620,550,P,0,NONE,0,1,506220,950
Control_TS_2_A,3,test,R,126,4,820,550,R,1,<rshift>,1,1,507220,267
Control_TS_2_A,3,test,R,127,1,620,350,P,0,NONE,0,1,508220,950
Control_TS_2_A,3,test,R,128,4,820,550,R,1,<rshift>,1,1,509220,333
Control_TS_2_A,3,test,R,129,3,620,550,R,1,<rshift>,1,1,510220,470
Control_TS_2_A,3,test,R,130,1,620,350,R,1,<rshift>,1,1,511220,421
Control_TS_2_A,3,test,R,131,4,820,550,R,1,<rshift>,1,1,512220,382
Control_TS_2_A,3,test,R,132,2,820,350,R,1,<rshift>,1,1,513220,383
Control_TS_2_A,3,test,R,133,3,620,550,R,1,<rshift>,1,1,514220,421
Control_TS_2_A,3,test,R,134,3,620,550,R,1,<rshift>,1,1,515220,416
Control_TS_2_A,3,test,R,135,2,820,350,P,0,NONE,0,1,516220,950
Control_TS_2_A,3,test,R,136,2,820,350,R,1,<rshift>,1,1,517220,515
Control_TS_2_A,3,test,R,137,2,820,350,R,1,<rshift>,1,1,518220,448
Control_TS_2_A,3,test,R,138,3,620,550,R,1,<rshift>,1,1,519220,455
Control_TS_2_A,3,test,R,139,2,820,350,R,1,<rshift>,1,1,520220,413
Control_TS_2_A,3,test,R,140,1,620,350,R,1,<rshift>,1,1,521220,415
Control_TS_2_A,3,test,R,141,4,820,550,R,1,<rshift>,1,1,522220,370
Control_TS_2_A,3,test,R,142,3,620,550,R,1,<rshift>,1,1,523220,462
Control_TS_2_A,3,test,R,143,2,820,350,R,1,<rshift>,1,1,524220,356
Control_TS_2_A,3,test,R,144,4,820,550,P,0,NONE,0,1,525220,950
Control_TS_2_A,3,test,R,145,3,620,550,R,1,<rshift>,1,1,526220,316
Control_TS_2_A,3,test,R,146,3,620,550,R,1,<rshift>,1,1,527220,413
Control_TS_2_A,3,test,R,147,2,820,350,P,0,NONE,0,1,528220,950
Control_TS_2_A,3,test,R,148,2,820,350,R,1,<rshift>,1,1,529220,380
Control_TS_2_A,3,test,R,149,3,620,550,R,1,<rshift>,1,1,530220,415
Control_TS_2_A,3,test,R,150,1,620,350,R,1,<rshift>,1,1,531220,432
Control_TS_2_A,3,test,R,151,1,620,350,R,1,<rshift>,1,1,532220,447
Control_TS_2_A,3,test,R,152,4,820,550,R,1,<rshift>,1,1,533220,408
Control_TS_2_A,3,test,R,153,2,820,350,R,1,<rshift>,1,1,534220,461
Control_TS_2_A,3,test,R,154,1,620,350,P,0,NONE,0,1,535220,950
Control_TS_2_A,3,test,R,155,2,820,350,R,1,<rshift>,1,1,536220,339
Control_TS_2_A,3,test,R,156,3,620,550,R,1,<rshift>,1,1,537220,407
Control_TS_2_A,3,test,R,157,4,820,550,P,0,<rshift>,1,0,538220,415
Control_TS_2_A,3,test,R,158,4,820,550,R,1,<rshift>,1,1,539220,343
Control_TS_2_A,3,test,R,159,4,820,550,R,1,<rshift>,1,1,540221,635
Control_TS_2_A,3,test,R,160,3,620,550,R,1,<rshift>,1,1,541220,472
Control_TS_2_A,3,test,R,161,4,820,550,R,1,<rshift>,1,1,542220,418
Control_TS_2_A,3,test,R,162,4,820,550,P,0,NONE,0,1,543220,950
Control_TS_2_A,3,test,R,163,2,820,350,R,1,<rshift>,1,1,544220,279
Control_TS_2_A,3,test,R,164,2,820,350,P,0,NONE,0,1,545221,950
Control_TS_2_A,3,test,R,165,4,820,550,P,0,NONE,0,1,546220,950
Control_TS_2_A,3,test,R,166,1,620,350,R,1,<rshift>,1,1,547220,405
Control_TS_2_A,3,test,R,167,1,620,350,R,1,<rshift>,1,1,548220,356
Control_TS_2_A,3,test,R,168,4,820,550,R,1,<rshift>,1,1,549220,400
Control_TS_2_A,3,test,R,169,4,820,550,R,1,<rshift>,1,1,550220,439
Control_TS_2_A,3,test,R,170,2,820,350,R,1,<rshift>,1,1,551220,432
Control_TS_2_A,3,test,R,171,2,820,350,P,0,NONE,0,1,552220,950
Control_TS_2_A,3,test,R,172,2,820,350,R,1,<rshift>,1,1,553220,224
Control_TS_2_A,3,test,R,173,1,620,350,R,1,<rshift>,1,1,554220,358
Control_TS_2_A,3,test,R,174,1,620,350,R,1,<rshift>,1,1,555220,398
Control_TS_2_A,3,test,R,175,1,620,350,P,0,NONE,0,1,556220,950
Control_TS_2_A,3,test,R,176,2,820,350,R,1,<rshift>,1,1,557220,274
Control_TS_2_A,3,test,R,177,4,820,550,R,1,<rshift>,1,1,558220,368
Control_TS_2_A,3,test,R,178,1,620,350,R,1,<rshift>,1,1,559220,421
Control_TS_2_A,3,test,R,179,1,620,350,R,1,<rshift>,1,1,560220,425
Control_TS_2_A,3,test,R,180,4,820,550,R,1,<rshift>,1,1,561220,401
Control_TS_2_A,3,test,R,181,1,620,350,R,1,<rshift>,1,1,562220,414
Control_TS_2_A,3,test,R,182,4,820,550,R,1,<rshift>,1,1,563220,410
Control_TS_2_A,3,test,R,183,2,820,350,R,1,<rshift>,1,1,564220,422
Control_TS_2_A,3,test,R,184,1,620,350,R,1,<rshift>,1,1,565221,436
Control_TS_2_A,3,test,R,185,3,620,550,R,1,<rshift>,1,1,566220,447
Control_TS_2_A,3,test,R,186,1,620,350,R,1,<rshift>,1,1,567220,448
Control_TS_2_A,3,test,R,187,3,620,550,R,1,<rshift>,1,1,568220,437
Control_TS_2_A,3,test,R,188,4,820,550,R,1,<rshift>,1,1,569220,565
Control_TS_2_A,3,test,R,189,2,820,350,P,0,NONE,0,1,570220,950
Control_TS_2_A,3,test,R,190,3,620,550,R,1,<rshift>,1,1,571220,244
Control_TS_2_A,3,test,R,191,3,620,550,R,1,<rshift>,1,1,572221,365
Control_TS_2_A,3,test,R,192,4,820,550,R,1,<rshift>,1,1,573220,346
Control_TS_2_A,3,test,R,193,4,820,550,R,1,<rshift>,1,1,574220,384
Control_TS_2_A,3,test,R,194,1,620,350,R,1,<rshift>,1,1,575220,405
Control_TS_2_A,3,test,R,195,3,620,550,R,1,<rshift>,1,1,576220,406
Control_TS_2_A,3,test,R,196,4,820,550,R,1,<rshift>,1,1,577220,287
Control_TS_2_A,3,test,R,197,2,820,350,P,0,NONE,0,1,578220,951
Control_TS_2_A,3,test,R,198,4,820,550,R,1,<rshift>,1,1,579220,252
Control_TS_2_A,3,test,R,199,3,620,550,R,1,<rshift>,1,1,580220,369
Control_TS_2_A,3,test,R,200,1,620,350,R,1,<rshift>,1,1,581220,386
Control_TS_2_A,3,test,R,201,3,620,550,R,1,<rshift>,1,1,582220,406
Control_TS_2_A,3,test,R,202,2,820,350,R,1,<rshift>,1,1,583220,422
Control_TS_2_A,3,test,R,203,4,820,550,R,1,<rshift>,1,1,584220,331
Control_TS_2_A,3,test,R,204,3,620,550,R,1,<rshift>,1,1,585220,361
Control_TS_2_A,3,test,R,205,2,820,350,R,1,<rshift>,1,1,586220,446
Control_TS_2_A,3,test,R,206,2,820,350,P,0,<rshift>,1,0,587220,477
Control_TS_2_A,3,test,R,207,3,620,550,R,1,NONE,0,0,588220,950
Control_TS_2_A,3,test,R,208,1,620,350,P,0,<rshift>,1,0,589220,247
Control_TS_2_A,3,test,R,209,3,620,550,R,1,<rshift>,1,1,590220,375
Control_TS_2_A,3,test,R,210,3,620,550,R,1,<rshift>,1,1,591220,436
Control_TS_2_A,3,test,R,211,2,820,350,R,1,<rshift>,1,1,592220,457
Control_TS_2_A,3,test,R,212,1,620,350,R,1,<rshift>,1,1,593220,419
Control_TS_2_A,3,test,R,213,4,820,550,R,1,<rshift>,1,1,594221,558
Control_TS_2_A,3,test,R,214,4,820,550,R,1,<rshift>,1,1,595220,445
Control_TS_2_A,3,test,R,215,2,820,350,R,1,<rshift>,1,1,596220,483
Control_TS_2_A,3,test,R,216,3,620,550,R,1,<rshift>,1,1,597220,396
Control_TS_2_A,3,test,R,217,4,820,550,R,1,<rshift>,1,1,598220,454
Control_TS_2_A,3,test,R,218,3,620,550,P,0,NONE,0,1,599220,950
Control_TS_2_A,3,test,R,219,3,620,550,R,1,<rshift>,1,1,600220,449
Control_TS_2_A,3,test,R,220,4,820,550,P,0,NONE,0,1,601220,950
Control_TS_2_A,3,test,R,221,3,620,550,P,0,<rshift>,1,0,602220,270
Control_TS_2_A,3,test,R,222,2,820,350,R,1,<rshift>,1,1,603220,465
Control_TS_2_A,3,test,R,223,3,620,550,R,1,<rshift>,1,1,604220,410
Control_TS_2_A,3,test,R,224,2,820,350,R,1,<rshift>,1,1,605220,460
Control_TS_2_A,3,test,R,225,1,620,350,R,1,<rshift>,1,1,606220,471
Control_TS_2_A,3,test,R,226,3,620,550,R,1,<rshift>,1,1,607220,474
Control_TS_2_A,3,test,R,227,3,620,550,R,1,<rshift>,1,1,608220,515
Control_TS_2_A,3,test,R,228,1,620,350,R,1,<rshift>,1,1,609220,490
Control_TS_2_A,3,test,R,229,4,820,550,R,1,<rshift>,1,1,610220,474
Control_TS_2_A,3,test,R,230,1,620,350,R,1,<rshift>,1,1,611220,475
Control_TS_2_A,3,test,R,231,2,820,350,R,1,<rshift>,1,1,612220,456
Control_TS_2_A,3,test,R,232,1,620,350,R,1,<rshift>,1,1,613220,477
Control_TS_2_A,3,test,R,233,1,620,350,P,0,NONE,0,1,614220,950
Control_TS_2_A,3,test,R,234,4,820,550,R,1,<rshift>,1,1,615220,550
Control_TS_2_A,3,test,R,235,3,620,550,R,1,<rshift>,1,1,616220,515
Control_TS_2_A,3,test,R,236,1,620,350,R,1,<rshift>,1,1,617220,477
Control_TS_2_A,3,test,R,237,1,620,350,R,1,<rshift>,1,1,618220,459
Control_TS_2_A,3,test,R,238,4,820,550,R,1,<rshift>,1,1,619220,443
Control_TS_2_A,3,test,R,239,1,620,350,R,1,<rshift>,1,1,620220,424
Control_TS_2_A,3,test,R,240,1,620,350,R,1,<rshift>,1,1,621220,433
Control_TS_2_A,3,test,R,241,2,820,350,R,1,<rshift>,1,1,622220,522
Control_TS_2_A,3,test,R,242,3,620,550,R,1,<rshift>,1,1,623220,515
Control_TS_2_A,3,test,R,243,3,620,550,P,0,NONE,0,1,624220,950
Control_TS_2_A,3,test,R,244,2,820,350,R,1,<rshift>,1,1,625220,444
Control_TS_2_A,3,test,R,245,1,620,350,R,1,<rshift>,1,1,626220,452
Control_TS_2_A,3,test,R,246,3,620,550,R,1,<rshift>,1,1,627220,418
Control_TS_2_A,3,test,R,247,3,620,550,R,1,<rshift>,1,1,628220,497
Control_TS_2_A,3,test,R,248,2,820,350,R,1,<rshift>,1,1,629220,484
Control_TS_2_A,3,test,R,249,2,820,350,R,1,<rshift>,1,1,630220,449
Control_TS_2_A,3,test,R,250,2,820,350,R,1,<rshift>,1,1,631220,451
Control_TS_2_A,3,test,R,251,4,820,550,R,1,<rshift>,1,1,632220,441
Control_TS_2_A,3,test,R,252,3,620,550,R,1,<rshift>,1,1,633220,440
Control_TS_2_A,3,test,R,253,3,620,550,R,1,<rshift>,1,1,634220,470
Control_TS_2_A,3,test,R,254,4,820,550,R,1,<rshift>,1,1,635220,480
Control_TS_2_A,3,test,R,255,2,820,350,R,1,<rshift>,1,1,636220,408
Control_TS_2_A,3,test,R,256,1,620,350,R,1,<rshift>,1,1,637220,460
Control_TS_2_A,3,test,R,257,4,820,550,R,1,<rshift>,1,1,638220,447
Control_TS_2_A,3,test,R,258,4,820,550,R,1,<rshift>,1,1,639220,467
Control_TS_2_A,3,test,R,259,4,820,550,R,1,<rshift>,1,1,640220,495
Control_TS_2_A,3,test,R,260,1,620,350,R,1,<rshift>,1,1,641220,592
Control_TS_2_A,3,test,R,261,2,820,350,P,0,NONE,0,1,642220,950
Control_TS_2_A,3,test,R,262,3,620,550,P,0,NONE,0,1,643220,950
Control_TS_2_A,3,test,R,263,3,620,550,R,1,<rshift>,1,1,644220,515
Control_TS_2_A,3,test,R,264,3,620,550,R,1,<rshift>,1,1,645220,429
Control_TS_2_A,3,test,R,265,2,820,350,R,1,<rshift>,1,1,646220,445
Control_TS_2_A,3,test,R,266,4,820,550,R,1,<rshift>,1,1,647220,465
Control_TS_2_A,3,test,R,267,3,620,550,R,1,<rshift>,1,1,648220,464
Control_TS_2_A,3,test,R,268,2,820,350,R,1,<rshift>,1,1,649220,472
Control_TS_2_A,3,test,R,269,4,820,550,R,1,<rshift>,1,1,650220,464
Control_TS_2_A,3,test,R,270,1,620,350,R,1,<rshift>,1,1,651220,458
Control_TS_2_A,3,test,R,271,4,820,550,R,1,<rshift>,1,1,652220,442
Control_TS_2_A,3,test,R,272,2,820,350,R,1,<rshift>,1,1,653220,457
Control_TS_2_A,3,test,R,273,3,620,550,R,1,<rshift>,1,1,654220,515
Control_TS_2_A,3,test,R,274,1,620,350,R,1,<rshift>,1,1,655220,441
Control_TS_2_A,3,test,R,275,1,620,350,R,1,<rshift>,1,1,656220,445
Control_TS_2_A,3,test,R,276,4,820,550,R,1,<rshift>,1,1,657221,449
Control_TS_2_A,3,test,R,277,3,620,550,R,1,<rshift>,1,1,658220,521
Control_TS_2_A,3,test,R,278,1,620,350,P,0,NONE,0,1,659220,950
Control_TS_2_A,3,test,R,279,4,820,550,R,1,<rshift>,1,1,660220,393
Control_TS_2_A,3,test,R,280,4,820,550,R,1,<rshift>,1,1,661220,466
Control_TS_2_A,3,test,R,281,2,820,350,R,1,<rshift>,1,1,662220,447
Control_TS_2_A,3,test,R,282,4,820,550,R,1,<rshift>,1,1,663220,436
Control_TS_2_A,3,test,R,283,4,820,550,P,0,NONE,0,1,664220,950
Control_TS_2_A,3,test,R,284,4,820,550,P,0,NONE,0,1,665220,950
Control_TS_2_A,3,test,R,285,4,820,550,R,1,<rshift>,1,1,666220,492
Control_TS_2_A,3,test,R,286,1,620,350,R,1,<rshift>,1,1,667220,529
Control_TS_2_A,3,test,R,287,4,820,550,R,1,<rshift>,1,1,668220,459
Control_TS_2_A,3,test,R,288,4,820,550,R,1,<rshift>,1,1,669220,455
Control_TS_2_A,3,test,R,289,4,820,550,R,1,<rshift>,1,1,670220,472
Control_TS_2_A,3,test,R,290,1,620,350,R,1,<rshift>,1,1,671220,515
Control_TS_2_A,3,test,R,291,4,820,550,R,1,<rshift>,1,1,672220,434
Control_TS_2_A,3,test,R,292,2,820,350,R,1,<rshift>,1,1,673220,458
Control_TS_2_A,3,test,R,293,2,820,350,P,0,NONE,0,1,674220,950
Control_TS_2_A,3,test,R,294,3,620,550,R,1,<rshift>,1,1,675220,424
Control_TS_2_A,3,test,R,295,4,820,550,P,0,NONE,0,1,676220,950
Control_TS_2_A,3,test,R,296,2,820,350,R,1,<rshift>,1,1,677220,371
Control_TS_2_A,3,test,R,297,2,820,350,R,1,<rshift>,1,1,678220,435
Control_TS_2_A,3,test,R,298,1,620,350,R,1,<rshift>,1,1,679220,443
Control_TS_2_A,3,test,R,299,4,820,550,R,1,<rshift>,1,1,680220,400
Control_TS_2_A,3,test,R,300,4,820,550,R,1,<rshift>,1,1,681220,403
