subnum,block,type,correctresponse,trial,choice,x,y,stim,present,response,responded,corr,starttime,rt
Control_TS_11_A,0,practice,P,1,1,620,350,P,1,NONE,0,0,8667,950
Control_TS_11_A,0,practice,P,2,4,820,550,P,1,NONE,0,0,10663,950
Control_TS_11_A,0,practice,P,3,4,820,550,P,1,NONE,0,0,12659,950
Control_TS_11_A,0,practice,P,4,1,620,350,P,1,<rshift>,1,1,14655,429
Control_TS_11_A,0,practice,P,5,1,620,350,P,1,NONE,0,0,15114,950
Control_TS_11_A,0,practice,P,6,2,820,350,P,1,<rshift>,1,1,17109,516
Control_TS_11_A,0,practice,P,7,2,820,350,P,1,NONE,0,0,17640,950
Control_TS_11_A,0,practice,P,8,2,820,350,R,0,NONE,0,1,19638,950
Control_TS_11_A,0,practice,P,9,4,820,550,P,1,<rshift>,1,1,20603,467
Control_TS_11_A,0,practice,P,10,3,620,550,R,0,NONE,0,1,21099,950
Control_TS_11_A,1,test,P,1,1,620,350,R,0,<rshift>,1,0,30227,838
Control_TS_11_A,1,test,P,2,4,820,550,R,0,NONE,0,1,31226,950
Control_TS_11_A,1,test,P,3,4,820,550,P,1,<rshift>,1,1,32227,378
Control_TS_11_A,1,test,P,4,2,820,350,P,1,<rshift>,1,1,33226,408
Control_TS_11_A,1,test,P,5,4,820,550,P,1,<rshift>,1,1,34226,371
Control_TS_11_A,1,test,P,6,4,820,550,P,1,<rshift>,1,1,35226,285
Control_TS_11_A,1,test,P,7,4,820,550,R,0,<rshift>,1,0,36226,119
Control_TS_11_A,1,test,P,8,2,820,350,P,1,<rshift>,1,1,37227,515
Control_TS_11_A,1,test,P,9,3,620,550,R,0,NONE,0,1,38226,951
Control_TS_11_A,1,test,P,10,4,820,550,P,1,<rshift>,1,1,39226,420
Control_TS_11_A,1,test,P,11,1,620,350,P,1,<rshift>,1,1,40226,444
Control_TS_11_A,1,test,P,12,4,820,550,P,1,<rshift>,1,1,41226,326
Control_TS_11_A,1,test,P,13,3,620,550,P,1,<rshift>,1,1,42226,384
Control_TS_11_A,1,test,P,14,4,820,550,P,1,<rshift>,1,1,43226,326
Control_TS_11_A,1,test,P,15,2,820,350,P,1,<rshift>,1,1,44226,402
Control_TS_11_A,1,test,P,16,1,620,350,P,1,<rshift>,1,1,45226,313
Control_TS_11_A,1,test,P,17,2,820,350,P,1,<rshift>,1,1,46226,346
Control_TS_11_A,1,test,P,18,3,620,550,P,1,<rshift>,1,1,47226,422
Control_TS_11_A,1,test,P,19,1,620,350,R,0,<rshift>,1,0,48226,395
Control_TS_11_A,1,test,P,20,1,620,350,P,1,NONE,0,0,49226,950
Control_TS_11_A,1,test,P,21,4,820,550,P,1,<rshift>,1,1,50226,427
Control_TS_11_A,1,test,P,22,4,820,550,P,1,<rshift>,1,1,51226,451
Control_TS_11_A,1,test,P,23,1,620,350,P,1,<rshift>,1,1,52226,463
Control_TS_11_A,1,test,P,24,2,820,350,P,1,<rshift>,1,1,53226,301
Control_TS_11_A,1,test,P,25,1,620,350,P,1,<rshift>,1,1,54226,284
Control_TS_11_A,1,test,P,26,1,620,350,P,1,<rshift>,1,1,55226,310
Control_TS_11_A,1,test,P,27,3,620,550,R,0,<rshift>,1,0,56226,314
Control_TS_11_A,1,test,P,28,4,820,550,R,0,NONE,0,1,57226,950
Control_TS_11_A,1,test,P,29,1,620,350,P,1,<rshift>,1,1,58226,870
Control_TS_11_A,1,test,P,30,3,620,550,P,1,<rshift>,1,1,59226,634
Control_TS_11_A,1,test,P,31,4,820,550,P,1,<rshift>,1,1,60226,601
Control_TS_11_A,1,test,P,32,3,620,550,P,1,<rshift>,1,1,61226,441
Control_TS_11_A,1,test,P,33,4,820,550,P,1,<rshift>,1,1,62226,297
Control_TS_11_A,1,test,P,34,2,820,350,P,1,<rshift>,1,1,63226,423
Control_TS_11_A,1,test,P,35,4,820,550,P,1,<rshift>,1,1,64226,329
Control_TS_11_A,1,test,P,36,1,620,350,P,1,<rshift>,1,1,65226,307
Control_TS_11_A,1,test,P,37,3,620,550,P,1,<rshift>,1,1,66226,431
Control_TS_11_A,1,test,P,38,3,620,550,P,1,<rshift>,1,1,67226,379
Control_TS_11_A,1,test,P,39,2,820,350,P,1,<rshift>,1,1,68226,334
Control_TS_11_A,1,test,P,40,1,620,350,P,1,<rshift>,1,1,69226,325
Control_TS_11_A,1,test,P,41,3,620,550,P,1,<rshift>,1,1,70226,441
Control_TS_11_A,1,test,P,42,4,820,550,P,1,<rshift>,1,1,71227,317
Control_TS_11_A,1,test,P,43,4,820,550,P,1,<rshift>,1,1,72226,353
Control_TS_11_A,1,test,P,44,1,620,350,P,1,<rshift>,1,1,73226,319
Control_TS_11_A,1,test,P,45,3,620,550,P,1,<rshift>,1,1,74226,318
Control_TS_11_A,1,test,P,46,3,620,550,P,1,<rshift>,1,1,75226,411
Control_TS_11_A,1,test,P,47,3,620,550,P,1,<rshift>,1,1,76226,328
Control_TS_11_A,1,test,P,48,1,620,350,P,1,<rshift>,1,1,77226,456
Control_TS_11_A,1,test,P,49,3,620,550,P,1,<rshift>,1,1,78226,322
Control_TS_11_A,1,test,P,50,1,620,350,P,1,<rshift>,1,1,79226,308
Control_TS_11_A,1,test,P,51,4,820,550,P,1,<rshift>,1,1,80226,457
Control_TS_11_A,1,test,P,52,3,620,550,P,1,<rshift>,1,1,81226,330
Control_TS_11_A,1,test,P,53,1,620,350,P,1,<rshift>,1,1,82226,268
Control_TS_11_A,1,test,P,54,3,620,550,P,1,<rshift>,1,1,83226,305
Control_TS_11_A,1,test,P,55,3,620,550,R,0,<rshift>,1,0,84226,366
Control_TS_11_A,1,test,P,56,4,820,550,P,1,<rshift>,1,1,85226,477
Control_TS_11_A,1,test,P,57,3,620,550,P,1,<rshift>,1,1,86226,292
Control_TS_11_A,1,test,P,58,1,620,350,P,1,<rshift>,1,1,87226,341
Control_TS_11_A,1,test,P,59,1,620,350,P,1,<rshift>,1,1,88226,534
Control_TS_11_A,1,test,P,60,3,620,550,P,1,<rshift>,1,1,89226,380
Control_TS_11_A,1,test,P,61,2,820,350,P,1,<rshift>,1,1,90226,329
Control_TS_11_A,1,test,P,62,1,620,350,P,1,<rshift>,1,1,91226,311
Control_TS_11_A,1,test,P,63,4,820,550,R,0,<rshift>,1,0,92226,290
Control_TS_11_A,1,test,P,64,3,620,550,P,1,<rshift>,1,1,93226,282
Control_TS_11_A,1,test,P,65,4,820,550,P,1,<rshift>,1,1,94226,385
Control_TS_11_A,1,test,P,66,3,620,550,R,0,<rshift>,1,0,95226,278
Control_TS_11_A,1,test,P,67,4,820,550,R,0,NONE,0,1,96226,950
Control_TS_11_A,1,test,P,68,4,820,550,P,1,<rshift>,1,1,97226,531
Control_TS_11_A,1,test,P,69,3,620,550,P,1,<rshift>,1,1,98226,288
Control_TS_11_A,1,test,P,70,2,820,350,P,1,<rshift>,1,1,99226,308
Control_TS_11_A,1,test,P,71,3,620,550,P,1,<rshift>,1,1,100226,299
Control_TS_11_A,1,test,P,72,4,820,550,P,1,<rshift>,1,1,101226,274
Control_TS_11_A,1,test,P,73,3,620,550,P,1,<rshift>,1,1,102226,276
Control_TS_11_A,1,test,P,74,2,820,350,P,1,<rshift>,1,1,103226,294
Control_TS_11_A,1,test,P,75,2,820,350,P,1,<rshift>,1,1,104226,417
Control_TS_11_A,1,test,P,76,4,820,550,P,1,<rshift>,1,1,105226,363
Control_TS_11_A,1,test,P,77,2,820,350,P,1,<rshift>,1,1,106226,323
Control_TS_11_A,1,test,P,78,4,820,550,P,1,<rshift>,1,1,107226,413
Control_TS_11_A,1,test,P,79,4,820,550,P,1,<rshift>,1,1,108226,338
Control_TS_11_A,1,test,P,80,1,620,350,P,1,<rshift>,1,1,109226,314
Control_TS_11_A,1,test,P,81,4,820,550,R,0,<rshift>,1,0,110226,285
Control_TS_11_A,1,test,P,82,4,820,550,P,1,<rshift>,1,1,111226,183
Control_TS_11_A,1,test,P,83,1,620,350,P,1,<rshift>,1,1,112226,545
Control_TS_11_A,1,test,P,84,4,820,550,R,0,<rshift>,1,0,113226,328
Control_TS_11_A,1,test,P,85,3,620,550,P,1,<rshift>,1,1,114226,526
Control_TS_11_A,1,test,P,86,2,820,350,P,1,<rshift>,1,1,115226,349
Control_TS_11_A,1,test,P,87,4,820,550,P,1,<rshift>,1,1,116226,360
Control_TS_11_A,1,test,P,88,1,620,350,P,1,<rshift>,1,1,117226,364
Control_TS_11_A,1,test,P,89,1,620,350,R,0,<rshift>,1,0,118226,394
Control_TS_11_A,1,test,P,90,3,620,550,P,1,<rshift>,1,1,119226,425
Control_TS_11_A,1,test,P,91,3,620,550,P,1,<rshift>,1,1,120226,324
Control_TS_11_A,1,test,P,92,3,620,550,P,1,<rshift>,1,1,121226,439
Control_TS_11_A,1,test,P,93,1,620,350,P,1,<rshift>,1,1,122226,467
Control_TS_11_A,1,test,P,94,4,820,550,P,1,<rshift>,1,1,123226,420
Control_TS_11_A,1,test,P,95,3,620,550,R,0,<rshift>,1,0,124226,373
Control_TS_11_A,1,test,P,96,2,820,350,P,1,<rshift>,1,1,125226,424
Control_TS_11_A,1,test,P,97,2,820,350,P,1,<rshift>,1,1,126226,444
Control_TS_11_A,1,test,P,98,1,620,350,P,1,<rshift>,1,1,127226,344
Control_TS_11_A,1,test,P,99,3,620,550,P,1,<rshift>,1,1,128226,517
Control_TS_11_A,1,test,P,100,2,820,350,P,1,<rshift>,1,1,129226,367
Control_TS_11_A,1,test,P,101,1,620,350,R,0,<rshift>,1,0,130226,309
Control_TS_11_A,1,test,P,102,1,620,350,P,1,<rshift>,1,1,131226,488
Control_TS_11_A,1,test,P,103,4,820,550,P,1,<rshift>,1,1,132226,380
Control_TS_11_A,1,test,P,104,1,620,350,P,1,<rshift>,1,1,133226,398
Control_TS_11_A,1,test,P,105,4,820,550,P,1,<rshift>,1,1,134226,317
Control_TS_11_A,1,test,P,106,3,620,550,R,0,NONE,0,1,135226,950
Control_TS_11_A,1,test,P,107,4,820,550,R,0,NONE,0,1,136226,950
Control_TS_11_A,1,test,P,108,3,620,550,P,1,<rshift>,1,1,137226,518
Control_TS_11_A,1,test,P,109,3,620,550,P,1,<rshift>,1,1,138226,436
Control_TS_11_A,1,test,P,110,1,620,350,P,1,<rshift>,1,1,139226,484
Control_TS_11_A,1,test,P,111,2,820,350,P,1,<rshift>,1,1,140226,438
Control_TS_11_A,1,test,P,112,4,820,550,P,1,<rshift>,1,1,141226,494
Control_TS_11_A,1,test,P,113,1,620,350,P,1,<rshift>,1,1,142226,345
Control_TS_11_A,1,test,P,114,1,620,350,R,0,<rshift>,1,0,143226,385
Control_TS_11_A,1,test,P,115,4,820,550,P,1,<rshift>,1,1,144226,536
Control_TS_11_A,1,test,P,116,4,820,550,R,0,NONE,0,1,145226,950
Control_TS_11_A,1,test,P,117,2,820,350,P,1,<rshift>,1,1,146226,353
Control_TS_11_A,1,test,P,118,4,820,550,P,1,<rshift>,1,1,147226,564
Control_TS_11_A,1,test,P,119,1,620,350,P,1,<rshift>,1,1,148226,388
Control_TS_11_A,1,test,P,120,3,620,550,R,0,NONE,0,1,149226,950
Control_TS_11_A,1,test,P,121,3,620,550,P,1,<rshift>,1,1,150226,434
Control_TS_11_A,1,test,P,122,1,620,350,P,1,<rshift>,1,1,151226,660
Control_TS_11_A,1,test,P,123,2,820,350,R,0,<rshift>,1,0,152226,400
Control_TS_11_A,1,test,P,124,1,620,350,P,1,<rshift>,1,1,153226,328
Control_TS_11_A,1,test,P,125,1,620,350,R,0,NONE,0,1,154226,950
Control_TS_11_A,1,test,P,126,3,620,550,P,1,<rshift>,1,1,155226,481
Control_TS_11_A,1,test,P,127,2,820,350,R,0,NONE,0,1,156226,950
Control_TS_11_A,1,test,P,128,2,820,350,P,1,<rshift>,1,1,157226,456
Control_TS_11_A,1,test,P,129,1,620,350,P,1,<rshift>,1,1,158226,467
Control_TS_11_A,1,test,P,130,4,820,550,P,1,<rshift>,1,1,159226,332
Control_TS_11_A,1,test,P,131,1,620,350,P,1,<rshift>,1,1,160226,372
Control_TS_11_A,1,test,P,132,1,620,350,P,1,<rshift>,1,1,161226,340
Control_TS_11_A,1,test,P,133,4,820,550,P,1,<rshift>,1,1,162226,297
Control_TS_11_A,1,test,P,134,3,620,550,P,1,<rshift>,1,1,163226,345
Control_TS_11_A,1,test,P,135,2,820,350,P,1,<rshift>,1,1,164226,315
Control_TS_11_A,1,test,P,136,1,620,350,P,1,<rshift>,1,1,165226,315
Control_TS_11_A,1,test,P,137,3,620,550,P,1,<rshift>,1,1,166226,387
Control_TS_11_A,1,test,P,138,3,620,550,P,1,<rshift>,1,1,167226,398
Control_TS_11_A,1,test,P,139,4,820,550,R,0,<rshift>,1,0,168226,353
Control_TS_11_A,1,test,P,140,2,820,350,P,1,<rshift>,1,1,169226,478
Control_TS_11_A,1,test,P,141,3,620,550,P,1,<rshift>,1,1,170226,411
Control_TS_11_A,1,test,P,142,1,620,350,P,1,<rshift>,1,1,171226,524
Control_TS_11_A,1,test,P,143,2,820,350,R,0,NONE,0,1,172226,950
Control_TS_11_A,1,test,P,144,4,820,550,P,1,<rshift>,1,1,173226,688
Control_TS_11_A,1,test,P,145,4,820,550,R,0,NONE,0,1,174226,950
Control_TS_11_A,1,test,P,146,4,820,550,P,1,<rshift>,1,1,175226,389
Control_TS_11_A,1,test,P,147,4,820,550,P,1,<rshift>,1,1,176227,875
Control_TS_11_A,1,test,P,148,2,820,350,P,1,<rshift>,1,1,177226,579
Control_TS_11_A,1,test,P,149,2,820,350,P,1,<rshift>,1,1,178227,445
Control_TS_11_A,1,test,P,150,4,820,550,P,1,<rshift>,1,1,179226,402
Control_TS_11_A,1,test,P,151,1,620,350,R,0,<rshift>,1,0,180226,376
Control_TS_11_A,1,test,P,152,1,620,350,R,0,<rshift>,1,0,181226,524
Control_TS_11_A,1,test,P,153,4,820,550,P,1,<rshift>,1,1,182226,606
Control_TS_11_A,1,test,P,154,1,620,350,R,0,NONE,0,1,183226,950
Control_TS_11_A,1,test,P,155,2,820,350,P,1,<rshift>,1,1,184226,417
Control_TS_11_A,1,test,P,156,4,820,550,P,1,<rshift>,1,1,185226,398
Control_TS_11_A,1,test,P,157,1,620,350,R,0,<rshift>,1,0,186226,406
Control_TS_11_A,1,test,P,158,1,620,350,P,1,<rshift>,1,1,187226,515
Control_TS_11_A,1,test,P,159,3,620,550,P,1,<rshift>,1,1,188227,541
Control_TS_11_A,1,test,P,160,3,620,550,P,1,<rshift>,1,1,189226,490
Control_TS_11_A,1,test,P,161,1,620,350,P,1,<rshift>,1,1,190226,674
Control_TS_11_A,1,test,P,162,1,620,350,R,0,<rshift>,1,0,191226,390
Control_TS_11_A,1,test,P,163,4,820,550,P,1,<rshift>,1,1,192226,369
Control_TS_11_A,1,test,P,164,3,620,550,R,0,<rshift>,1,0,193226,315
Control_TS_11_A,1,test,P,165,2,820,350,R,0,NONE,0,1,194226,950
Control_TS_11_A,1,test,P,166,2,820,350,P,1,<rshift>,1,1,195226,515
Control_TS_11_A,1,test,P,167,1,620,350,P,1,<rshift>,1,1,196226,406
Control_TS_11_A,1,test,P,168,2,820,350,R,0,NONE,0,1,197226,950
Control_TS_11_A,1,test,P,169,2,820,350,P,1,<rshift>,1,1,198226,462
Control_TS_11_A,1,test,P,170,3,620,550,P,1,<rshift>,1,1,199226,375
Control_TS_11_A,1,test,P,171,3,620,550,P,1,<rshift>,1,1,200226,372
Control_TS_11_A,1,test,P,172,1,620,350,P,1,<rshift>,1,1,201226,466
Control_TS_11_A,1,test,P,173,3,620,550,P,1,<rshift>,1,1,202226,388
Control_TS_11_A,1,test,P,174,2,820,350,P,1,<rshift>,1,1,203226,321
Control_TS_11_A,1,test,P,175,3,620,550,P,1,<rshift>,1,1,204226,386
Control_TS_11_A,1,test,P,176,1,620,350,P,1,<rshift>,1,1,205226,359
Control_TS_11_A,1,test,P,177,3,620,550,R,0,<rshift>,1,0,206226,365
Control_TS_11_A,1,test,P,178,3,620,550,P,1,<rshift>,1,1,207226,535
Control_TS_11_A,1,test,P,179,2,820,350,P,1,<rshift>,1,1,208226,492
Control_TS_11_A,1,test,P,180,3,620,550,P,1,<rshift>,1,1,209226,343
Control_TS_11_A,1,test,P,181,2,820,350,P,1,<rshift>,1,1,210226,300
Control_TS_11_A,1,test,P,182,1,620,350,P,1,<rshift>,1,1,211226,328
Control_TS_11_A,1,test,P,183,1,620,350,P,1,<rshift>,1,1,212226,497
Control_TS_11_A,1,test,P,184,1,620,350,R,0,<rshift>,1,0,213226,371
Control_TS_11_A,1,test,P,185,3,620,550,P,1,<rshift>,1,1,214226,481
Control_TS_11_A,1,test,P,186,1,620,350,P,1,<rshift>,1,1,215226,557
Control_TS_11_A,1,test,P,187,2,820,350,P,1,<rshift>,1,1,216226,343
Control_TS_11_A,1,test,P,188,3,620,550,P,1,<rshift>,1,1,217226,406
Control_TS_11_A,1,test,P,189,3,620,550,P,1,<rshift>,1,1,218226,425
Control_TS_11_A,1,test,P,190,2,820,350,P,1,<rshift>,1,1,219227,420
Control_TS_11_A,1,test,P,191,2,820,350,P,1,<rshift>,1,1,220226,409
Control_TS_11_A,1,test,P,192,1,620,350,P,1,<rshift>,1,1,221226,414
Control_TS_11_A,1,test,P,193,1,620,350,P,1,<rshift>,1,1,222226,451
Control_TS_11_A,1,test,P,194,3,620,550,P,1,<rshift>,1,1,223226,450
Control_TS_11_A,1,test,P,195,4,820,550,P,1,<rshift>,1,1,224226,410
Control_TS_11_A,1,test,P,196,2,820,350,R,0,<rshift>,1,0,225226,352
Control_TS_11_A,1,test,P,197,3,620,550,R,0,NONE,0,1,226226,950
Control_TS_11_A,1,test,P,198,4,820,550,P,1,<rshift>,1,1,227226,384
Control_TS_11_A,1,test,P,199,4,820,550,P,1,<rshift>,1,1,228226,381
Control_TS_11_A,1,test,P,200,4,820,550,P,1,<rshift>,1,1,229226,306
Control_TS_11_A,1,test,P,201,2,820,350,R,0,<rshift>,1,0,230226,432
Control_TS_11_A,1,test,P,202,3,620,550,P,1,<rshift>,1,1,231226,395
Control_TS_11_A,1,test,P,203,3,620,550,P,1,<rshift>,1,1,232226,473
Control_TS_11_A,1,test,P,204,1,620,350,P,1,<rshift>,1,1,233227,429
Control_TS_11_A,1,test,P,205,4,820,550,P,1,<rshift>,1,1,234226,344
Control_TS_11_A,1,test,P,206,1,620,350,R,0,NONE,0,1,235226,950
Control_TS_11_A,1,test,P,207,1,620,350,P,1,<rshift>,1,1,236226,523
Control_TS_11_A,1,test,P,208,2,820,350,P,1,<rshift>,1,1,237226,353
Control_TS_11_A,1,test,P,209,4,820,550,R,0,<rshift>,1,0,238226,359
Control_TS_11_A,1,test,P,210,2,820,350,P,1,NONE,0,0,239226,950
Control_TS_11_A,1,test,P,211,3,620,550,P,1,<rshift>,1,1,240226,340
Control_TS_11_A,1,test,P,212,3,620,550,P,1,<rshift>,1,1,241226,423
Control_TS_11_A,1,test,P,213,4,820,550,R,0,NONE,0,1,242226,950
Control_TS_11_A,1,test,P,214,4,820,550,P,1,<rshift>,1,1,243226,439
Control_TS_11_A,1,test,P,215,1,620,350,P,1,<rshift>,1,1,244226,575
Control_TS_11_A,1,test,P,216,4,820,550,P,1,<rshift>,1,1,245226,480
Control_TS_11_A,1,test,P,217,3,620,550,P,1,<rshift>,1,1,246226,344
Control_TS_11_A,1,test,P,218,1,620,350,P,1,<rshift>,1,1,247226,420
Control_TS_11_A,1,test,P,219,2,820,350,P,1,<rshift>,1,1,248226,342
Control_TS_11_A,1,test,P,220,2,820,350,R,0,<rshift>,1,0,249226,413
Control_TS_11_A,1,test,P,221,2,820,350,R,0,NONE,0,1,250226,950
Control_TS_11_A,1,test,P,222,1,620,350,P,1,<rshift>,1,1,251226,392
Control_TS_11_A,1,test,P,223,3,620,550,P,1,<rshift>,1,1,252226,442
Control_TS_11_A,1,test,P,224,3,620,550,P,1,<rshift>,1,1,253226,420
Control_TS_11_A,1,test,P,225,2,820,350,P,1,<rshift>,1,1,254226,431
Control_TS_11_A,1,test,P,226,3,620,550,R,0,<rshift>,1,0,255226,407
Control_TS_11_A,1,test,P,227,1,620,350,P,1,<rshift>,1,1,256226,424
Control_TS_11_A,1,test,P,228,1,620,350,P,1,<rshift>,1,1,257226,482
Control_TS_11_A,1,test,P,229,4,820,550,P,1,<rshift>,1,1,258226,467
Control_TS_11_A,1,test,P,230,4,820,550,P,1,<rshift>,1,1,259226,419
Control_TS_11_A,1,test,P,231,3,620,550,P,1,<rshift>,1,1,260226,433
Control_TS_11_A,1,test,P,232,3,620,550,R,0,NONE,0,1,261226,950
Control_TS_11_A,1,test,P,233,3,620,550,P,1,<rshift>,1,1,262226,409
Control_TS_11_A,1,test,P,234,1,620,350,P,1,<rshift>,1,1,263226,568
Control_TS_11_A,1,test,P,235,2,820,350,P,1,<rshift>,1,1,264226,383
Control_TS_11_A,1,test,P,236,4,820,550,R,0,<rshift>,1,0,265226,329
Control_TS_11_A,1,test,P,237,1,620,350,P,1,<rshift>,1,1,266226,425
Control_TS_11_A,1,test,P,238,3,620,550,P,1,<rshift>,1,1,267226,323
Control_TS_11_A,1,test,P,239,1,620,350,P,1,<rshift>,1,1,268226,389
Control_TS_11_A,1,test,P,240,2,820,350,P,1,<rshift>,1,1,269226,340
Control_TS_11_A,1,test,P,241,1,620,350,R,0,<rshift>,1,0,270226,371
Control_TS_11_A,1,test,P,242,4,820,550,P,1,<rshift>,1,1,271226,438
Control_TS_11_A,1,test,P,243,3,620,550,P,1,<rshift>,1,1,272226,355
Control_TS_11_A,1,test,P,244,4,820,550,P,1,<rshift>,1,1,273226,423
Control_TS_11_A,1,test,P,245,1,620,350,P,1,<rshift>,1,1,274226,381
Control_TS_11_A,1,test,P,246,2,820,350,R,0,<rshift>,1,0,275226,315
Control_TS_11_A,1,test,P,247,2,820,350,P,1,<rshift>,1,1,276226,523
Control_TS_11_A,1,test,P,248,1,620,350,P,1,<rshift>,1,1,277226,534
Control_TS_11_A,1,test,P,249,2,820,350,P,1,<rshift>,1,1,278226,347
Control_TS_11_A,1,test,P,250,4,820,550,P,1,<rshift>,1,1,279227,371
Control_TS_11_A,1,test,P,251,2,820,350,P,1,<rshift>,1,1,280226,356
Control_TS_11_A,1,test,P,252,3,620,550,R,0,<rshift>,1,0,281226,357
Control_TS_11_A,1,test,P,253,1,620,350,P,1,<rshift>,1,1,282226,461
Control_TS_11_A,1,test,P,254,1,620,350,P,1,<rshift>,1,1,283226,647
Control_TS_11_A,1,test,P,255,4,820,550,R,0,NONE,0,1,284226,950
Control_TS_11_A,1,test,P,256,2,820,350,R,0,<rshift>,1,0,285226,316
Control_TS_11_A,1,test,P,257,1,620,350,P,1,<rshift>,1,1,286226,515
Control_TS_11_A,1,test,P,258,1,620,350,P,1,<rshift>,1,1,287226,432
Control_TS_11_A,1,test,P,259,1,620,350,P,1,<rshift>,1,1,288226,320
Control_TS_11_A,1,test,P,260,1,620,350,P,1,<rshift>,1,1,289226,417
Control_TS_11_A,1,test,P,261,3,620,550,P,1,<rshift>,1,1,290226,779
Control_TS_11_A,1,test,P,262,1,620,350,P,1,<rshift>,1,1,291226,419
Control_TS_11_A,1,test,P,263,2,820,350,P,1,<rshift>,1,1,292226,386
Control_TS_11_A,1,test,P,264,2,820,350,P,1,<rshift>,1,1,293226,542
Control_TS_11_A,1,test,P,265,3,620,550,P,1,<rshift>,1,1,294226,782
Control_TS_11_A,1,test,P,266,4,820,550,P,1,<rshift>,1,1,295226,553
Control_TS_11_A,1,test,P,267,1,620,350,P,1,<rshift>,1,1,296226,391
Control_TS_11_A,1,test,P,268,1,620,350,P,1,<rshift>,1,1,297226,350
Control_TS_11_A,1,test,P,269,1,620,350,P,1,<rshift>,1,1,298226,318
Control_TS_11_A,1,test,P,270,2,820,350,P,1,<rshift>,1,1,299226,361
Control_TS_11_A,1,test,P,271,4,820,550,P,1,<rshift>,1,1,300226,348
Control_TS_11_A,1,test,P,272,1,620,350,P,1,<rshift>,1,1,301226,367
Control_TS_11_A,1,test,P,273,2,820,350,P,1,<rshift>,1,1,302226,333
Control_TS_11_A,1,test,P,274,4,820,550,P,1,<rshift>,1,1,303226,324
Control_TS_11_A,1,test,P,275,3,620,550,R,0,<rshift>,1,0,304226,328
Control_TS_11_A,1,test,P,276,1,620,350,P,1,<rshift>,1,1,305226,404
Control_TS_11_A,1,test,P,277,3,620,550,P,1,<rshift>,1,1,306226,330
Control_TS_11_A,1,test,P,278,4,820,550,P,1,<rshift>,1,1,307226,317
Control_TS_11_A,1,test,P,279,2,820,350,P,1,<rshift>,1,1,308226,267
Control_TS_11_A,1,test,P,280,1,620,350,P,1,<rshift>,1,1,309226,308
Control_TS_11_A,1,test,P,281,4,820,550,R,0,<rshift>,1,0,310226,220
Control_TS_11_A,1,test,P,282,3,620,550,P,1,<rshift>,1,1,311226,312
Control_TS_11_A,1,test,P,283,4,820,550,R,0,<rshift>,1,0,312226,692
Control_TS_11_A,1,test,P,284,2,820,350,P,1,<rshift>,1,1,313226,457
Control_TS_11_A,1,test,P,285,2,820,350,P,1,<rshift>,1,1,314226,406
Control_TS_11_A,1,test,P,286,3,620,550,P,1,<rshift>,1,1,315226,366
Control_TS_11_A,1,test,P,287,3,620,550,R,0,<rshift>,1,0,316226,366
Control_TS_11_A,1,test,P,288,4,820,550,P,1,<rshift>,1,1,317226,371
Control_TS_11_A,1,test,P,289,2,820,350,P,1,<rshift>,1,1,318226,390
Control_TS_11_A,1,test,P,290,2,820,350,P,1,<rshift>,1,1,319226,348
Control_TS_11_A,1,test,P,291,4,820,550,R,0,NONE,0,1,320226,950
Control_TS_11_A,1,test,P,292,1,620,350,P,1,<rshift>,1,1,321226,414
Control_TS_11_A,1,test,P,293,1,620,350,R,0,<rshift>,1,0,322226,266
Control_TS_11_A,1,test,P,294,2,820,350,P,1,<rshift>,1,1,323226,371
Control_TS_11_A,1,test,P,295,3,620,550,P,1,<rshift>,1,1,324226,463
Control_TS_11_A,1,test,P,296,2,820,350,P,1,<rshift>,1,1,325226,318
Control_TS_11_A,1,test,P,297,3,620,550,P,1,<rshift>,1,1,326226,363
Control_TS_11_A,1,test,P,298,3,620,550,R,0,NONE,0,1,327226,950
Control_TS_11_A,1,test,P,299,3,620,550,P,1,<rshift>,1,1,328226,483
Control_TS_11_A,1,test,P,300,2,820,350,P,1,<rshift>,1,1,329226,417
Control_TS_11_A,2,practice,R,1,3,620,550,R,1,<rshift>,1,1,351252,753
Control_TS_11_A,2,practice,R,2,4,820,550,R,1,<rshift>,1,1,352252,397
Control_TS_11_A,2,practice,R,3,1,620,350,R,1,<rshift>,1,1,353252,373
Control_TS_11_A,2,practice,R,4,4,820,550,P,0,<rshift>,1,0,354252,320
Control_TS_11_A,2,practice,R,5,1,620,350,R,1,<rshift>,1,1,355634,461
Control_TS_11_A,2,practice,R,6,2,820,350,R,1,<rshift>,1,1,356252,469
Control_TS_11_A,2,practice,R,7,4,820,550,P,0,<rshift>,1,0,357252,361
Control_TS_11_A,2,practice,R,8,3,620,550,R,1,<rshift>,1,1,358673,358
Control_TS_11_A,2,practice,R,9,1,620,350,R,1,<rshift>,1,1,359252,584
Control_TS_11_A,2,practice,R,10,2,820,350,R,1,<rshift>,1,1,360252,403
Control_TS_11_A,3,test,R,1,3,620,550,R,1,<rshift>,1,1,365623,543
Control_TS_11_A,3,test,R,2,4,820,550,R,1,<rshift>,1,1,366622,276
Control_TS_11_A,3,test,R,3,2,820,350,R,1,<rshift>,1,1,367622,346
Control_TS_11_A,3,test,R,4,1,620,350,R,1,<rshift>,1,1,368622,307
Control_TS_11_A,3,test,R,5,3,620,550,R,1,<rshift>,1,1,369623,342
Control_TS_11_A,3,test,R,6,2,820,350,P,0,<rshift>,1,0,370622,325
Control_TS_11_A,3,test,R,7,2,820,350,R,1,<rshift>,1,1,371622,427
Control_TS_11_A,3,test,R,8,1,620,350,P,0,<rshift>,1,0,372622,468
Control_TS_11_A,3,test,R,9,4,820,550,P,0,<rshift>,1,0,373622,407
Control_TS_11_A,3,test,R,10,2,820,350,R,1,<rshift>,1,1,374622,435
Control_TS_11_A,3,test,R,11,3,620,550,R,1,<rshift>,1,1,375622,285
Control_TS_11_A,3,test,R,12,4,820,550,R,1,<rshift>,1,1,376622,372
Control_TS_11_A,3,test,R,13,4,820,550,R,1,<rshift>,1,1,377622,337
Control_TS_11_A,3,test,R,14,4,820,550,R,1,<rshift>,1,1,378623,307
Control_TS_11_A,3,test,R,15,2,820,350,R,1,<rshift>,1,1,379622,548
Control_TS_11_A,3,test,R,16,1,620,350,R,1,<rshift>,1,1,380622,330
Control_TS_11_A,3,test,R,17,3,620,550,R,1,<rshift>,1,1,381623,368
Control_TS_11_A,3,test,R,18,1,620,350,R,1,<rshift>,1,1,382622,362
Control_TS_11_A,3,test,R,19,4,820,550,R,1,<rshift>,1,1,383622,303
Control_TS_11_A,3,test,R,20,3,620,550,R,1,<rshift>,1,1,384622,401
Control_TS_11_A,3,test,R,21,4,820,550,P,0,<rshift>,1,0,385623,340
Control_TS_11_A,3,test,R,22,4,820,550,R,1,<rshift>,1,1,386622,700
Control_TS_11_A,3,test,R,23,3,620,550,R,1,<rshift>,1,1,387622,430
Control_TS_11_A,3,test,R,24,1,620,350,P,0,<rshift>,1,0,388622,336
Control_TS_11_A,3,test,R,25,1,620,350,R,1,NONE,0,0,389622,950
Control_TS_11_A,3,test,R,26,1,620,350,R,1,<rshift>,1,1,390622,129
Control_TS_11_A,3,test,R,27,2,820,350,P,0,<rshift>,1,0,391623,311
Control_TS_11_A,3,test,R,28,2,820,350,P,0,<rshift>,1,0,392623,405
Control_TS_11_A,3,test,R,29,2,820,350,R,1,<rshift>,1,1,393623,585
Control_TS_11_A,3,test,R,30,1,620,350,P,0,NONE,0,1,394622,950
Control_TS_11_A,3,test,R,31,1,620,350,R,1,<rshift>,1,1,395622,404
Control_TS_11_A,3,test,R,32,4,820,550,P,0,<rshift>,1,0,396623,375
Control_TS_11_A,3,test,R,33,3,620,550,R,1,<rshift>,1,1,397622,523
Control_TS_11_A,3,test,R,34,2,820,350,R,1,<rshift>,1,1,398622,288
Control_TS_11_A,3,test,R,35,4,820,550,R,1,<rshift>,1,1,399622,374
Control_TS_11_A,3,test,R,36,2,820,350,R,1,<rshift>,1,1,400622,335
Control_TS_11_A,3,test,R,37,1,620,350,P,0,<rshift>,1,0,401623,323
Control_TS_11_A,3,test,R,38,1,620,350,R,1,<rshift>,1,1,402623,579
Control_TS_11_A,3,test,R,39,1,620,350,R,1,<rshift>,1,1,403623,432
Control_TS_11_A,3,test,R,40,4,820,550,R,1,<rshift>,1,1,404623,303
Control_TS_11_A,3,test,R,41,1,620,350,R,1,<rshift>,1,1,405622,326
Control_TS_11_A,3,test,R,42,1,620,350,R,1,<rshift>,1,1,406622,343
Control_TS_11_A,3,test,R,43,1,620,350,R,1,<rshift>,1,1,407623,307
Control_TS_11_A,3,test,R,44,1,620,350,R,1,<rshift>,1,1,408622,264
Control_TS_11_A,3,test,R,45,3,620,550,R,1,<rshift>,1,1,409622,429
Control_TS_11_A,3,test,R,46,1,620,350,R,1,<rshift>,1,1,410622,344
Control_TS_11_A,3,test,R,47,3,620,550,R,1,<rshift>,1,1,411622,354
Control_TS_11_A,3,test,R,48,2,820,350,P,0,NONE,0,1,412622,950
Control_TS_11_A,3,test,R,49,3,620,550,R,1,<rshift>,1,1,413622,333
Control_TS_11_A,3,test,R,50,2,820,350,R,1,<rshift>,1,1,414622,371
Control_TS_11_A,3,test,R,51,3,620,550,R,1,<rshift>,1,1,415623,320
Control_TS_11_A,3,test,R,52,1,620,350,R,1,<rshift>,1,1,416622,328
Control_TS_11_A,3,test,R,53,4,820,550,R,1,<rshift>,1,1,417622,291
Control_TS_11_A,3,test,R,54,1,620,350,R,1,<rshift>,1,1,418623,309
Control_TS_11_A,3,test,R,55,2,820,350,R,1,<rshift>,1,1,419622,357
Control_TS_11_A,3,test,R,56,2,820,350,R,1,<rshift>,1,1,420622,358
Control_TS_11_A,3,test,R,57,4,820,550,R,1,<rshift>,1,1,421622,412
Control_TS_11_A,3,test,R,58,1,620,350,R,1,<rshift>,1,1,422623,345
Control_TS_11_A,3,test,R,59,3,620,550,R,1,<rshift>,1,1,423623,373
Control_TS_11_A,3,test,R,60,2,820,350,R,1,<rshift>,1,1,424622,323
Control_TS_11_A,3,test,R,61,4,820,550,R,1,<rshift>,1,1,425622,366
Control_TS_11_A,3,test,R,62,2,820,350,R,1,<rshift>,1,1,426623,365
Control_TS_11_A,3,test,R,63,1,620,350,R,1,<rshift>,1,1,427623,363
Control_TS_11_A,3,test,R,64,3,620,550,R,1,<rshift>,1,1,428622,393
Control_TS_11_A,3,test,R,65,3,620,550,R,1,<rshift>,1,1,429623,402
Control_TS_11_A,3,test,R,66,2,820,350,R,1,<rshift>,1,1,430622,378
Control_TS_11_A,3,test,R,67,4,820,550,P,0,NONE,0,1,431622,950
Control_TS_11_A,3,test,R,68,1,620,350,R,1,<rshift>,1,1,432622,342
Control_TS_11_A,3,test,R,69,4,820,550,R,1,<rshift>,1,1,433622,324
Control_TS_11_A,3,test,R,70,1,620,350,R,1,<rshift>,1,1,434622,340
Control_TS_11_A,3,test,R,71,1,620,350,R,1,<rshift>,1,1,435622,333
Control_TS_11_A,3,test,R,72,4,820,550,R,1,<rshift>,1,1,436622,340
Control_TS_11_A,3,test,R,73,3,620,550,R,1,<rshift>,1,1,437622,371
Control_TS_11_A,3,test,R,74,4,820,550,R,1,<rshift>,1,1,438622,468
Control_TS_11_A,3,test,R,75,3,620,550,R,1,<rshift>,1,1,439623,434
Control_TS_11_A,3,test,R,76,2,820,350,R,1,<rshift>,1,1,440622,297
Control_TS_11_A,3,test,R,77,1,620,350,P,0,<rshift>,1,0,441622,286
Control_TS_11_A,3,test,R,78,4,820,550,R,1,<rshift>,1,1,442622,614
Control_TS_11_A,3,test,R,79,3,620,550,R,1,<rshift>,1,1,443622,263
Control_TS_11_A,3,test,R,80,1,620,350,R,1,<rshift>,1,1,444622,281
Control_TS_11_A,3,test,R,81,2,820,350,R,1,<rshift>,1,1,445622,304
Control_TS_11_A,3,test,R,82,1,620,350,R,1,<rshift>,1,1,446623,353
Control_TS_11_A,3,test,R,83,1,620,350,P,0,NONE,0,1,447622,950
Control_TS_11_A,3,test,R,84,2,820,350,R,1,<rshift>,1,1,448622,398
Control_TS_11_A,3,test,R,85,2,820,350,R,1,<rshift>,1,1,449622,387
Control_TS_11_A,3,test,R,86,1,620,350,P,0,NONE,0,1,450622,950
Control_TS_11_A,3,test,R,87,3,620,550,R,1,<rshift>,1,1,451622,384
Control_TS_11_A,3,test,R,88,1,620,350,R,1,<rshift>,1,1,452622,342
Control_TS_11_A,3,test,R,89,4,820,550,P,0,<rshift>,1,0,453622,328
Control_TS_11_A,3,test,R,90,3,620,550,R,1,<rshift>,1,1,454623,373
Control_TS_11_A,3,test,R,91,4,820,550,P,0,<rshift>,1,0,455622,346
Control_TS_11_A,3,test,R,92,2,820,350,R,1,<rshift>,1,1,456622,362
Control_TS_11_A,3,test,R,93,1,620,350,R,1,<rshift>,1,1,457622,476
Control_TS_11_A,3,test,R,94,1,620,350,R,1,<rshift>,1,1,458622,481
Control_TS_11_A,3,test,R,95,4,820,550,R,1,<rshift>,1,1,459623,348
Control_TS_11_A,3,test,R,96,4,820,550,P,0,NONE,0,1,460623,950
Control_TS_11_A,3,test,R,97,2,820,350,R,1,<rshift>,1,1,461622,390
Control_TS_11_A,3,test,R,98,3,620,550,R,1,<rshift>,1,1,462622,326
Control_TS_11_A,3,test,R,99,3,620,550,R,1,<rshift>,1,1,463623,470
Control_TS_11_A,3,test,R,100,2,820,350,R,1,<rshift>,1,1,464622,399
Control_TS_11_A,3,test,R,101,4,820,550,P,0,<rshift>,1,0,465622,349
Control_TS_11_A,3,test,R,102,2,820,350,R,1,<rshift>,1,1,466622,395
Control_TS_11_A,3,test,R,103,1,620,350,R,1,<rshift>,1,1,467622,356
Control_TS_11_A,3,test,R,104,4,820,550,R,1,<rshift>,1,1,468622,300
Control_TS_11_A,3,test,R,105,4,820,550,R,1,<rshift>,1,1,469623,390
Control_TS_11_A,3,test,R,106,2,820,350,R,1,<rshift>,1,1,470622,363
Control_TS_11_A,3,test,R,107,4,820,550,R,1,<rshift>,1,1,471623,380
Control_TS_11_A,3,test,R,108,3,620,550,R,1,<rshift>,1,1,472622,537
Control_TS_11_A,3,test,R,109,1,620,350,R,1,<rshift>,1,1,473622,347
Control_TS_11_A,3,test,R,110,3,620,550,P,0,<rshift>,1,0,474622,386
Control_TS_11_A,3,test,R,111,4,820,550,R,1,<rshift>,1,1,475622,537
Control_TS_11_A,3,test,R,112,4,820,550,R,1,<rshift>,1,1,476622,411
Control_TS_11_A,3,test,R,113,2,820,350,R,1,<rshift>,1,1,477623,347
Control_TS_11_A,3,test,R,114,2,820,350,R,1,<rshift>,1,1,478622,392
Control_TS_11_A,3,test,R,115,1,620,350,R,1,<rshift>,1,1,479622,529
Control_TS_11_A,3,test,R,116,1,620,350,R,1,<rshift>,1,1,480622,381
Control_TS_11_A,3,test,R,117,4,820,550,R,1,<rshift>,1,1,481622,403
Control_TS_11_A,3,test,R,118,2,820,350,R,1,<rshift>,1,1,482622,298
Control_TS_11_A,3,test,R,119,2,820,350,R,1,<rshift>,1,1,483622,277
Control_TS_11_A,3,test,R,120,4,820,550,R,1,<rshift>,1,1,484623,68
Control_TS_11_A,3,test,R,121,1,620,350,R,1,<rshift>,1,1,485622,329
Control_TS_11_A,3,test,R,122,2,820,350,P,0,<rshift>,1,0,486622,310
Control_TS_11_A,3,test,R,123,3,620,550,P,0,<rshift>,1,0,487622,327
Control_TS_11_A,3,test,R,124,3,620,550,R,1,<rshift>,1,1,488622,516
Control_TS_11_A,3,test,R,125,1,620,350,R,1,<rshift>,1,1,489622,494
Control_TS_11_A,3,test,R,126,1,620,350,R,1,<rshift>,1,1,490622,466
Control_TS_11_A,3,test,R,127,2,820,350,R,1,<rshift>,1,1,491622,447
Control_TS_11_A,3,test,R,128,4,820,550,R,1,<rshift>,1,1,492623,422
Control_TS_11_A,3,test,R,129,2,820,350,R,1,<rshift>,1,1,493622,562
Control_TS_11_A,3,test,R,130,2,820,350,P,0,NONE,0,1,494622,950
Control_TS_11_A,3,test,R,131,2,820,350,R,1,<rshift>,1,1,495622,370
Control_TS_11_A,3,test,R,132,4,820,550,R,1,<rshift>,1,1,496622,328
Control_TS_11_A,3,test,R,133,1,620,350,R,1,<rshift>,1,1,497622,406
Control_TS_11_A,3,test,R,134,2,820,350,P,0,<rshift>,1,0,498622,356
Control_TS_11_A,3,test,R,135,4,820,550,R,1,<rshift>,1,1,499622,300
Control_TS_11_A,3,test,R,136,1,620,350,P,0,<rshift>,1,0,500623,366
Control_TS_11_A,3,test,R,137,4,820,550,R,1,<rshift>,1,1,501622,467
Control_TS_11_A,3,test,R,138,3,620,550,R,1,<rshift>,1,1,502622,517
Control_TS_11_A,3,test,R,139,1,620,350,P,0,<rshift>,1,0,503622,396
Control_TS_11_A,3,test,R,140,1,620,350,P,0,NONE,0,1,504622,950
Control_TS_11_A,3,test,R,141,1,620,350,P,0,NONE,0,1,505622,950
Control_TS_11_A,3,test,R,142,1,620,350,R,1,<rshift>,1,1,506622,401
Control_TS_11_A,3,test,R,143,1,620,350,R,1,<rshift>,1,1,507622,320
Control_TS_11_A,3,test,R,144,3,620,550,R,1,<rshift>,1,1,508622,451
Control_TS_11_A,3,test,R,145,1,620,350,R,1,<rshift>,1,1,509622,395
Control_TS_11_A,3,test,R,146,2,820,350,R,1,<rshift>,1,1,510622,391
Control_TS_11_A,3,test,R,147,3,620,550,R,1,<rshift>,1,1,511622,354
Control_TS_11_A,3,test,R,148,3,620,550,R,1,<rshift>,1,1,512622,428
Control_TS_11_A,3,test,R,149,2,820,350,R,1,<rshift>,1,1,513622,517
Control_TS_11_A,3,test,R,150,1,620,350,R,1,<rshift>,1,1,514622,579
Control_TS_11_A,3,test,R,151,4,820,550,R,1,<rshift>,1,1,515622,444
Control_TS_11_A,3,test,R,152,1,620,350,R,1,<rshift>,1,1,516622,342
Control_TS_11_A,3,test,R,153,1,620,350,R,1,<rshift>,1,1,517622,348
Control_TS_11_A,3,test,R,154,4,820,550,R,1,<rshift>,1,1,518622,457
Control_TS_11_A,3,test,R,155,1,620,350,R,1,<rshift>,1,1,519622,376
Control_TS_11_A,3,test,R,156,2,820,350,R,1,<rshift>,1,1,520623,351
Control_TS_11_A,3,test,R,157,3,620,550,R,1,<rshift>,1,1,521623,294
Control_TS_11_A,3,test,R,158,4,820,550,R,1,<rshift>,1,1,522623,400
Control_TS_11_A,3,test,R,159,2,820,350,R,1,<rshift>,1,1,523622,306
Control_TS_11_A,3,test,R,160,4,820,550,R,1,<rshift>,1,1,524623,366
Control_TS_11_A,3,test,R,161,3,620,550,P,0,<rshift>,1,0,525622,325
Control_TS_11_A,3,test,R,162,3,620,550,R,1,<rshift>,1,1,526622,523
Control_TS_11_A,3,test,R,163,4,820,550,R,1,<rshift>,1,1,527622,386
Control_TS_11_A,3,test,R,164,3,620,550,R,1,<rshift>,1,1,528622,332
Control_TS_11_A,3,test,R,165,1,620,350,R,1,<rshift>,1,1,529622,385
Control_TS_11_A,3,test,R,166,4,820,550,P,0,<rshift>,1,0,530622,335
Control_TS_11_A,3,test,R,167,1,620,350,R,1,<rshift>,1,1,531622,422
Control_TS_11_A,3,test,R,168,4,820,550,R,1,<rshift>,1,1,532622,458
Control_TS_11_A,3,test,R,169,2,820,350,R,1,<rshift>,1,1,533622,310
Control_TS_11_A,3,test,R,170,4,820,550,R,1,<rshift>,1,1,534622,388
Control_TS_11_A,3,test,R,171,2,820,350,R,1,<rshift>,1,1,535623,863
Control_TS_11_A,3,test,R,172,4,820,550,R,1,<rshift>,1,1,536623,549
Control_TS_11_A,3,test,R,173,2,820,350,R,1,<rshift>,1,1,537623,342
Control_TS_11_A,3,test,R,174,4,820,550,R,1,<rshift>,1,1,538622,332
Control_TS_11_A,3,test,R,175,1,620,350,P,0,<rshift>,1,0,539622,191
Control_TS_11_A,3,test,R,176,1,620,350,R,1,<rshift>,1,1,540622,607
Control_TS_11_A,3,test,R,177,4,820,550,R,1,<rshift>,1,1,541622,539
Control_TS_11_A,3,test,R,178,1,620,350,R,1,<rshift>,1,1,542622,312
Control_TS_11_A,3,test,R,179,4,820,550,R,1,<rshift>,1,1,543622,493
Control_TS_11_A,3,test,R,180,1,620,350,R,1,<rshift>,1,1,544623,342
Control_TS_11_A,3,test,R,181,2,820,350,R,1,<rshift>,1,1,545623,526
Control_TS_11_A,3,test,R,182,4,820,550,R,1,<rshift>,1,1,546623,320
Control_TS_11_A,3,test,R,183,3,620,550,P,0,<rshift>,1,0,547623,422
Control_TS_11_A,3,test,R,184,2,820,350,R,1,<rshift>,1,1,548623,269
Control_TS_11_A,3,test,R,185,4,820,550,R,1,<rshift>,1,1,549623,331
Control_TS_11_A,3,test,R,186,3,620,550,R,1,<rshift>,1,1,550623,515
Control_TS_11_A,3,test,R,187,1,620,350,P,0,<rshift>,1,0,551623,398
Control_TS_11_A,3,test,R,188,4,820,550,R,1,<rshift>,1,1,552623,491
Control_TS_11_A,3,test,R,189,1,620,350,R,1,<rshift>,1,1,553623,553
Control_TS_11_A,3,test,R,190,4,820,550,R,1,<rshift>,1,1,554622,346
Control_TS_11_A,3,test,R,191,4,820,550,R,1,<rshift>,1,1,555622,450
Control_TS_11_A,3,test,R,192,3,620,550,R,1,<rshift>,1,1,556622,515
Control_TS_11_A,3,test,R,193,1,620,350,R,1,<rshift>,1,1,557622,361
Control_TS_11_A,3,test,R,194,3,620,550,R,1,<rshift>,1,1,558623,374
Control_TS_11_A,3,test,R,195,1,620,350,R,1,<rshift>,1,1,559622,368
Control_TS_11_A,3,test,R,196,2,820,350,R,1,<rshift>,1,1,560622,534
Control_TS_11_A,3,test,R,197,2,820,350,R,1,<rshift>,1,1,561623,482
Control_TS_11_A,3,test,R,198,2,820,350,R,1,<rshift>,1,1,562622,444
Control_TS_11_A,3,test,R,199,2,820,350,P,0,<rshift>,1,0,563623,402
Control_TS_11_A,3,test,R,200,2,820,350,R,1,<rshift>,1,1,564623,355
Control_TS_11_A,3,test,R,201,3,620,550,R,1,<rshift>,1,1,565622,466
Control_TS_11_A,3,test,R,202,3,620,550,R,1,<rshift>,1,1,566622,440
Control_TS_11_A,3,test,R,203,1,620,350,P,0,<rshift>,1,0,567623,359
Control_TS_11_A,3,test,R,204,2,820,350,P,0,<rshift>,1,0,568624,483
Control_TS_11_A,3,test,R,205,3,620,550,P,0,<rshift>,1,0,569623,370
Control_TS_11_A,3,test,R,206,2,820,350,R,1,<rshift>,1,1,570623,498
Control_TS_11_A,3,test,R,207,2,820,350,R,1,<rshift>,1,1,571623,390
Control_TS_11_A,3,test,R,208,2,820,350,R,1,<rshift>,1,1,572622,304
Control_TS_11_A,3,test,R,209,2,820,350,R,1,<rshift>,1,1,573622,302
Control_TS_11_A,3,test,R,210,4,820,550,R,1,<rshift>,1,1,574622,462
Control_TS_11_A,3,test,R,211,4,820,550,R,1,<rshift>,1,1,575622,316
Control_TS_11_A,3,test,R,212,2,820,350,P,0,<rshift>,1,0,576622,436
Control_TS_11_A,3,test,R,213,3,620,550,R,1,<rshift>,1,1,577622,373
Control_TS_11_A,3,test,R,214,3,620,550,R,1,<rshift>,1,1,578622,283
Control_TS_11_A,3,test,R,215,1,620,350,R,1,<rshift>,1,1,579622,547
Control_TS_11_A,3,test,R,216,4,820,550,R,1,<rshift>,1,1,580622,275
Control_TS_11_A,3,test,R,217,2,820,350,R,1,<rshift>,1,1,581622,339
Control_TS_11_A,3,test,R,218,2,820,350,R,1,<rshift>,1,1,582622,462
Control_TS_11_A,3,test,R,219,2,820,350,P,0,<rshift>,1,0,583622,481
Control_TS_11_A,3,test,R,220,3,620,550,R,1,<rshift>,1,1,584622,392
Control_TS_11_A,3,test,R,221,3,620,550,R,1,<rshift>,1,1,585622,449
Control_TS_11_A,3,test,R,222,3,620,550,R,1,<rshift>,1,1,586622,363
Control_TS_11_A,3,test,R,223,3,620,550,P,0,<rshift>,1,0,587622,333
Control_TS_11_A,3,test,R,224,3,620,550,P,0,NONE,0,1,588622,950
Control_TS_11_A,3,test,R,225,1,620,350,R,1,<rshift>,1,1,589622,480
Control_TS_11_A,3,test,R,226,2,820,350,R,1,<rshift>,1,1,590623,354
Control_TS_11_A,3,test,R,227,3,620,550,R,1,<rshift>,1,1,591622,454
Control_TS_11_A,3,test,R,228,1,620,350,R,1,<rshift>,1,1,592623,399
Control_TS_11_A,3,test,R,229,1,620,350,P,0,NONE,0,1,593623,950
Control_TS_11_A,3,test,R,230,1,620,350,R,1,<rshift>,1,1,594622,410
Control_TS_11_A,3,test,R,231,3,620,550,R,1,<rshift>,1,1,595622,336
Control_TS_11_A,3,test,R,232,1,620,350,R,1,<rshift>,1,1,596622,760
Control_TS_11_A,3,test,R,233,2,820,350,R,1,<rshift>,1,1,597622,463
Control_TS_11_A,3,test,R,234,4,820,550,R,1,<rshift>,1,1,598622,395
Control_TS_11_A,3,test,R,235,3,620,550,R,1,<rshift>,1,1,599622,301
Control_TS_11_A,3,test,R,236,3,620,550,R,1,<rshift>,1,1,600622,570
Control_TS_11_A,3,test,R,237,3,620,550,R,1,<rshift>,1,1,601622,350
Control_TS_11_A,3,test,R,238,4,820,550,R,1,<rshift>,1,1,602622,402
Control_TS_11_A,3,test,R,239,4,820,550,R,1,<rshift>,1,1,603622,380
Control_TS_11_A,3,test,R,240,4,820,550,R,1,<rshift>,1,1,604622,345
Control_TS_11_A,3,test,R,241,3,620,550,R,1,<rshift>,1,1,605622,389
Control_TS_11_A,3,test,R,242,4,820,550,R,1,<rshift>,1,1,606622,397
Control_TS_11_A,3,test,R,243,3,620,550,R,1,<rshift>,1,1,607623,402
Control_TS_11_A,3,test,R,244,4,820,550,P,0,<rshift>,1,0,608622,53
Control_TS_11_A,3,test,R,245,3,620,550,R,1,<rshift>,1,1,609622,300
Control_TS_11_A,3,test,R,246,2,820,350,P,0,<rshift>,1,0,610622,467
Control_TS_11_A,3,test,R,247,4,820,550,R,1,<rshift>,1,1,611623,403
Control_TS_11_A,3,test,R,248,2,820,350,R,1,<rshift>,1,1,612622,829
Control_TS_11_A,3,test,R,249,4,820,550,R,1,<rshift>,1,1,613622,515
Control_TS_11_A,3,test,R,250,2,820,350,R,1,<rshift>,1,1,614622,339
Control_TS_11_A,3,test,R,251,2,820,350,R,1,<rshift>,1,1,615623,401
Control_TS_11_A,3,test,R,252,2,820,350,R,1,<rshift>,1,1,616622,385
Control_TS_11_A,3,test,R,253,4,820,550,R,1,<rshift>,1,1,617622,355
Control_TS_11_A,3,test,R,254,1,620,350,P,0,NONE,0,1,618622,950
Control_TS_11_A,3,test,R,255,2,820,350,R,1,<rshift>,1,1,619622,349
Control_TS_11_A,3,test,R,256,1,620,350,R,1,<rshift>,1,1,620623,661
Control_TS_11_A,3,test,R,257,2,820,350,P,0,<rshift>,1,0,621623,376
Control_TS_11_A,3,test,R,258,1,620,350,P,0,NONE,0,1,622622,950
Control_TS_11_A,3,test,R,259,4,820,550,R,1,<rshift>,1,1,623622,304
Control_TS_11_A,3,test,R,260,2,820,350,P,0,<rshift>,1,0,624622,309
Control_TS_11_A,3,test,R,261,1,620,350,P,0,<rshift>,1,0,625622,460
Control_TS_11_A,3,test,R,262,4,820,550,R,1,<rshift>,1,1,626622,642
Control_TS_11_A,3,test,R,263,2,820,350,P,0,<rshift>,1,0,627622,344
Control_TS_11_A,3,test,R,264,1,620,350,R,1,<rshift>,1,1,628622,625
Control_TS_11_A,3,test,R,265,1,620,350,P,0,<rshift>,1,0,629622,433
Control_TS_11_A,3,test,R,266,3,620,550,R,1,<rshift>,1,1,630622,515
Control_TS_11_A,3,test,R,267,4,820,550,R,1,<rshift>,1,1,631623,352
Control_TS_11_A,3,test,R,268,1,620,350,R,1,<rshift>,1,1,632622,485
Control_TS_11_A,3,test,R,269,1,620,350,P,0,NONE,0,1,633623,950
Control_TS_11_A,3,test,R,270,1,620,350,R,1,<rshift>,1,1,634622,486
Control_TS_11_A,3,test,R,271,1,620,350,R,1,<rshift>,1,1,635623,299
Control_TS_11_A,3,test,R,272,3,620,550,R,1,<rshift>,1,1,636622,332
Control_TS_11_A,3,test,R,273,1,620,350,R,1,<rshift>,1,1,637622,306
Control_TS_11_A,3,test,R,274,4,820,550,R,1,<rshift>,1,1,638622,289
Control_TS_11_A,3,test,R,275,2,820,350,P,0,NONE,0,1,639622,950
Control_TS_11_A,3,test,R,276,4,820,550,R,1,<rshift>,1,1,640622,306
Control_TS_11_A,3,test,R,277,1,620,350,R,1,<rshift>,1,1,641622,322
Control_TS_11_A,3,test,R,278,1,620,350,P,0,NONE,0,1,642622,950
Control_TS_11_A,3,test,R,279,4,820,550,P,0,<rshift>,1,0,643622,99
Control_TS_11_A,3,test,R,280,4,820,550,R,1,<rshift>,1,1,644623,426
Control_TS_11_A,3,test,R,281,2,820,350,R,1,<rshift>,1,1,645623,350
Control_TS_11_A,3,test,R,282,1,620,350,R,1,<rshift>,1,1,646622,293
Control_TS_11_A,3,test,R,283,1,620,350,R,1,<rshift>,1,1,647622,355
Control_TS_11_A,3,test,R,284,3,620,550,P,0,NONE,0,1,648622,950
Control_TS_11_A,3,test,R,285,1,620,350,R,1,<rshift>,1,1,649622,391
Control_TS_11_A,3,test,R,286,1,620,350,R,1,<rshift>,1,1,650622,395
Control_TS_11_A,3,test,R,287,4,820,550,P,0,NONE,0,1,651622,950
Control_TS_11_A,3,test,R,288,2,820,350,P,0,<rshift>,1,0,652622,268
Control_TS_11_A,3,test,R,289,2,820,350,R,1,<rshift>,1,1,653623,478
Control_TS_11_A,3,test,R,290,4,820,550,R,1,<rshift>,1,1,654622,394
Control_TS_11_A,3,test,R,291,3,620,550,R,1,<rshift>,1,1,655623,339
Control_TS_11_A,3,test,R,292,4,820,550,P,0,<rshift>,1,0,656623,350
Control_TS_11_A,3,test,R,293,2,820,350,P,0,NONE,0,1,657622,951
Control_TS_11_A,3,test,R,294,4,820,550,R,1,<rshift>,1,1,658622,654
Control_TS_11_A,3,test,R,295,1,620,350,R,1,<rshift>,1,1,659623,410
Control_TS_11_A,3,test,R,296,4,820,550,R,1,<rshift>,1,1,660622,482
Control_TS_11_A,3,test,R,297,4,820,550,R,1,<rshift>,1,1,661622,258
Control_TS_11_A,3,test,R,298,2,820,350,R,1,<rshift>,1,1,662622,386
Control_TS_11_A,3,test,R,299,1,620,350,R,1,<rshift>,1,1,663622,376
Control_TS_11_A,3,test,R,300,1,620,350,R,1,<rshift>,1,1,664622,10
