subnum,block,type,correctresponse,trial,choice,x,y,stim,present,response,responded,corr,starttime,rt
Control_TS_17_B,0,practice,P,1,2,820,350,P,1,NONE,0,0,30709,951
Control_TS_17_B,0,practice,P,2,4,820,550,P,1,<rshift>,1,1,32707,773
Control_TS_17_B,0,practice,P,3,1,620,350,P,1,<rshift>,1,1,33494,902
Control_TS_17_B,0,practice,P,4,1,620,350,P,1,NONE,0,0,34411,950
Control_TS_17_B,0,practice,P,5,4,820,550,R,0,<rshift>,1,0,36405,347
Control_TS_17_B,0,practice,P,6,3,620,550,P,1,<rshift>,1,1,37811,482
Control_TS_17_B,0,practice,P,7,4,820,550,R,0,NONE,0,1,38324,950
Control_TS_17_B,0,practice,P,8,4,820,550,P,1,<rshift>,1,1,39290,607
Control_TS_17_B,0,practice,P,9,4,820,550,P,1,NONE,0,0,39911,950
Control_TS_17_B,0,practice,P,10,3,620,550,P,1,<rshift>,1,1,41906,439
Control_TS_17_B,1,test,P,1,2,820,350,P,1,<rshift>,1,1,51850,640
Control_TS_17_B,1,test,P,2,3,620,550,P,1,<rshift>,1,1,52849,352
Control_TS_17_B,1,test,P,3,3,620,550,P,1,<rshift>,1,1,53849,324
Control_TS_17_B,1,test,P,4,3,620,550,P,1,<rshift>,1,1,54849,368
Control_TS_17_B,1,test,P,5,3,620,550,P,1,<rshift>,1,1,55849,336
Control_TS_17_B,1,test,P,6,1,620,350,P,1,<rshift>,1,1,56849,344
Control_TS_17_B,1,test,P,7,4,820,550,R,0,<rshift>,1,0,57850,323
Control_TS_17_B,1,test,P,8,1,620,350,P,1,<rshift>,1,1,58849,367
Control_TS_17_B,1,test,P,9,4,820,550,P,1,<rshift>,1,1,59849,295
Control_TS_17_B,1,test,P,10,3,620,550,P,1,<rshift>,1,1,60849,360
Control_TS_17_B,1,test,P,11,1,620,350,P,1,<rshift>,1,1,61850,335
Control_TS_17_B,1,test,P,12,3,620,550,P,1,<rshift>,1,1,62849,302
Control_TS_17_B,1,test,P,13,2,820,350,P,1,<rshift>,1,1,63849,269
Control_TS_17_B,1,test,P,14,4,820,550,P,1,<rshift>,1,1,64849,516
Control_TS_17_B,1,test,P,15,2,820,350,P,1,<rshift>,1,1,65849,318
Control_TS_17_B,1,test,P,16,1,620,350,P,1,<rshift>,1,1,66849,276
Control_TS_17_B,1,test,P,17,3,620,550,P,1,<rshift>,1,1,67849,572
Control_TS_17_B,1,test,P,18,4,820,550,R,0,<rshift>,1,0,68849,363
Control_TS_17_B,1,test,P,19,4,820,550,P,1,<rshift>,1,1,69849,295
Control_TS_17_B,1,test,P,20,1,620,350,P,1,<rshift>,1,1,70849,260
Control_TS_17_B,1,test,P,21,3,620,550,R,0,<rshift>,1,0,71850,256
Control_TS_17_B,1,test,P,22,3,620,550,P,1,<rshift>,1,1,72849,281
Control_TS_17_B,1,test,P,23,1,620,350,P,1,<rshift>,1,1,73850,267
Control_TS_17_B,1,test,P,24,3,620,550,P,1,<rshift>,1,1,74849,320
Control_TS_17_B,1,test,P,25,3,620,550,R,0,<rshift>,1,0,75849,260
Control_TS_17_B,1,test,P,26,3,620,550,P,1,<rshift>,1,1,76849,281
Control_TS_17_B,1,test,P,27,2,820,350,P,1,<rshift>,1,1,77849,320
Control_TS_17_B,1,test,P,28,2,820,350,P,1,<rshift>,1,1,78849,304
Control_TS_17_B,1,test,P,29,4,820,550,R,0,<rshift>,1,0,79849,285
Control_TS_17_B,1,test,P,30,1,620,350,P,1,<rshift>,1,1,80849,306
Control_TS_17_B,1,test,P,31,1,620,350,P,1,<rshift>,1,1,81849,491
Control_TS_17_B,1,test,P,32,4,820,550,P,1,<rshift>,1,1,82849,325
Control_TS_17_B,1,test,P,33,4,820,550,P,1,<rshift>,1,1,83849,271
Control_TS_17_B,1,test,P,34,2,820,350,P,1,<rshift>,1,1,84849,257
Control_TS_17_B,1,test,P,35,1,620,350,R,0,<rshift>,1,0,85849,273
Control_TS_17_B,1,test,P,36,1,620,350,P,1,<rshift>,1,1,86849,401
Control_TS_17_B,1,test,P,37,3,620,550,P,1,<rshift>,1,1,87849,360
Control_TS_17_B,1,test,P,38,3,620,550,R,0,<rshift>,1,0,88849,253
Control_TS_17_B,1,test,P,39,2,820,350,P,1,<rshift>,1,1,89849,238
Control_TS_17_B,1,test,P,40,2,820,350,P,1,<rshift>,1,1,90849,586
Control_TS_17_B,1,test,P,41,3,620,550,R,0,NONE,0,1,91849,950
Control_TS_17_B,1,test,P,42,4,820,550,P,1,<rshift>,1,1,92849,298
Control_TS_17_B,1,test,P,43,1,620,350,P,1,<rshift>,1,1,93849,455
Control_TS_17_B,1,test,P,44,3,620,550,P,1,<rshift>,1,1,94849,637
Control_TS_17_B,1,test,P,45,4,820,550,R,0,NONE,0,1,95849,950
Control_TS_17_B,1,test,P,46,4,820,550,P,1,<rshift>,1,1,96849,515
Control_TS_17_B,1,test,P,47,4,820,550,R,0,NONE,0,1,97849,950
Control_TS_17_B,1,test,P,48,2,820,350,P,1,<rshift>,1,1,98849,475
Control_TS_17_B,1,test,P,49,2,820,350,P,1,<rshift>,1,1,99849,436
Control_TS_17_B,1,test,P,50,3,620,550,P,1,<rshift>,1,1,100849,544
Control_TS_17_B,1,test,P,51,4,820,550,P,1,<rshift>,1,1,101849,702
Control_TS_17_B,1,test,P,52,1,620,350,R,0,NONE,0,1,102849,950
Control_TS_17_B,1,test,P,53,2,820,350,P,1,<rshift>,1,1,103849,348
Control_TS_17_B,1,test,P,54,2,820,350,P,1,<rshift>,1,1,104849,819
Control_TS_17_B,1,test,P,55,2,820,350,P,1,NONE,0,0,105849,950
Control_TS_17_B,1,test,P,56,1,620,350,P,1,<rshift>,1,1,106849,23
Control_TS_17_B,1,test,P,57,1,620,350,P,1,<rshift>,1,1,107849,531
Control_TS_17_B,1,test,P,58,2,820,350,R,0,<rshift>,1,0,108849,361
Control_TS_17_B,1,test,P,59,1,620,350,R,0,NONE,0,1,109849,950
Control_TS_17_B,1,test,P,60,1,620,350,R,0,NONE,0,1,110849,950
Control_TS_17_B,1,test,P,61,4,820,550,P,1,<rshift>,1,1,111849,325
Control_TS_17_B,1,test,P,62,1,620,350,P,1,<rshift>,1,1,112849,481
Control_TS_17_B,1,test,P,63,2,820,350,P,1,<rshift>,1,1,113849,499
Control_TS_17_B,1,test,P,64,3,620,550,P,1,<rshift>,1,1,114849,879
Control_TS_17_B,1,test,P,65,1,620,350,P,1,NONE,0,0,115849,950
Control_TS_17_B,1,test,P,66,1,620,350,P,1,NONE,0,0,116849,950
Control_TS_17_B,1,test,P,67,2,820,350,R,0,NONE,0,1,117849,950
Control_TS_17_B,1,test,P,68,1,620,350,P,1,<rshift>,1,1,118849,675
Control_TS_17_B,1,test,P,69,1,620,350,P,1,NONE,0,0,119849,950
Control_TS_17_B,1,test,P,70,2,820,350,P,1,<rshift>,1,1,120849,330
Control_TS_17_B,1,test,P,71,3,620,550,P,1,<rshift>,1,1,121849,306
Control_TS_17_B,1,test,P,72,4,820,550,P,1,<rshift>,1,1,122849,324
Control_TS_17_B,1,test,P,73,4,820,550,P,1,<rshift>,1,1,123849,317
Control_TS_17_B,1,test,P,74,3,620,550,P,1,<rshift>,1,1,124849,338
Control_TS_17_B,1,test,P,75,1,620,350,R,0,<rshift>,1,0,125849,303
Control_TS_17_B,1,test,P,76,2,820,350,P,1,<rshift>,1,1,126849,565
Control_TS_17_B,1,test,P,77,2,820,350,P,1,NONE,0,0,127849,950
Control_TS_17_B,1,test,P,78,4,820,550,R,0,<rshift>,1,0,128849,515
Control_TS_17_B,1,test,P,79,1,620,350,P,1,<rshift>,1,1,129849,450
Control_TS_17_B,1,test,P,80,4,820,550,P,1,<rshift>,1,1,130849,351
Control_TS_17_B,1,test,P,81,2,820,350,R,0,<rshift>,1,0,131849,355
Control_TS_17_B,1,test,P,82,4,820,550,P,1,<rshift>,1,1,132849,385
Control_TS_17_B,1,test,P,83,2,820,350,R,0,NONE,0,1,133849,951
Control_TS_17_B,1,test,P,84,1,620,350,P,1,<rshift>,1,1,134849,269
Control_TS_17_B,1,test,P,85,3,620,550,P,1,<rshift>,1,1,135849,558
Control_TS_17_B,1,test,P,86,4,820,550,P,1,<rshift>,1,1,136849,684
Control_TS_17_B,1,test,P,87,1,620,350,R,0,<rshift>,1,0,137849,746
Control_TS_17_B,1,test,P,88,4,820,550,R,0,<rshift>,1,0,138849,899
Control_TS_17_B,1,test,P,89,2,820,350,P,1,NONE,0,0,139849,950
Control_TS_17_B,1,test,P,90,3,620,550,P,1,<rshift>,1,1,140849,336
Control_TS_17_B,1,test,P,91,2,820,350,P,1,<rshift>,1,1,141849,826
Control_TS_17_B,1,test,P,92,1,620,350,P,1,NONE,0,0,142849,950
Control_TS_17_B,1,test,P,93,2,820,350,P,1,<rshift>,1,1,143849,146
Control_TS_17_B,1,test,P,94,1,620,350,P,1,<rshift>,1,1,144849,538
Control_TS_17_B,1,test,P,95,1,620,350,P,1,NONE,0,0,145849,950
Control_TS_17_B,1,test,P,96,3,620,550,P,1,<rshift>,1,1,146849,279
Control_TS_17_B,1,test,P,97,4,820,550,R,0,NONE,0,1,147849,950
Control_TS_17_B,1,test,P,98,4,820,550,P,1,<rshift>,1,1,148849,524
Control_TS_17_B,1,test,P,99,4,820,550,P,1,<rshift>,1,1,149849,857
Control_TS_17_B,1,test,P,100,4,820,550,P,1,NONE,0,0,150849,950
Control_TS_17_B,1,test,P,101,4,820,550,P,1,NONE,0,0,151849,950
Control_TS_17_B,1,test,P,102,1,620,350,P,1,<rshift>,1,1,152848,329
Control_TS_17_B,1,test,P,103,1,620,350,P,1,<rshift>,1,1,153849,384
Control_TS_17_B,1,test,P,104,3,620,550,P,1,<rshift>,1,1,154849,469
Control_TS_17_B,1,test,P,105,2,820,350,P,1,<rshift>,1,1,155850,351
Control_TS_17_B,1,test,P,106,4,820,550,P,1,<rshift>,1,1,156849,391
Control_TS_17_B,1,test,P,107,4,820,550,P,1,<rshift>,1,1,157849,476
Control_TS_17_B,1,test,P,108,4,820,550,P,1,<rshift>,1,1,158849,352
Control_TS_17_B,1,test,P,109,4,820,550,P,1,<rshift>,1,1,159849,341
Control_TS_17_B,1,test,P,110,2,820,350,P,1,<rshift>,1,1,160849,335
Control_TS_17_B,1,test,P,111,3,620,550,P,1,<rshift>,1,1,161849,296
Control_TS_17_B,1,test,P,112,3,620,550,P,1,<rshift>,1,1,162849,552
Control_TS_17_B,1,test,P,113,3,620,550,P,1,<rshift>,1,1,163850,480
Control_TS_17_B,1,test,P,114,1,620,350,P,1,<rshift>,1,1,164849,440
Control_TS_17_B,1,test,P,115,3,620,550,P,1,<rshift>,1,1,165849,446
Control_TS_17_B,1,test,P,116,4,820,550,P,1,<rshift>,1,1,166849,371
Control_TS_17_B,1,test,P,117,3,620,550,R,0,NONE,0,1,167849,950
Control_TS_17_B,1,test,P,118,4,820,550,P,1,<rshift>,1,1,168849,431
Control_TS_17_B,1,test,P,119,3,620,550,P,1,<rshift>,1,1,169849,421
Control_TS_17_B,1,test,P,120,4,820,550,P,1,<rshift>,1,1,170849,573
Control_TS_17_B,1,test,P,121,2,820,350,P,1,<rshift>,1,1,171849,383
Control_TS_17_B,1,test,P,122,1,620,350,P,1,<rshift>,1,1,172849,433
Control_TS_17_B,1,test,P,123,2,820,350,R,0,NONE,0,1,173849,950
Control_TS_17_B,1,test,P,124,3,620,550,P,1,<rshift>,1,1,174849,323
Control_TS_17_B,1,test,P,125,3,620,550,P,1,<rshift>,1,1,175849,475
Control_TS_17_B,1,test,P,126,4,820,550,P,1,<rshift>,1,1,176849,400
Control_TS_17_B,1,test,P,127,4,820,550,P,1,<rshift>,1,1,177849,486
Control_TS_17_B,1,test,P,128,2,820,350,P,1,<rshift>,1,1,178849,545
Control_TS_17_B,1,test,P,129,2,820,350,P,1,<rshift>,1,1,179850,838
Control_TS_17_B,1,test,P,130,2,820,350,P,1,NONE,0,0,180849,950
Control_TS_17_B,1,test,P,131,1,620,350,R,0,<rshift>,1,0,181849,343
Control_TS_17_B,1,test,P,132,3,620,550,P,1,<rshift>,1,1,182849,679
Control_TS_17_B,1,test,P,133,1,620,350,P,1,<rshift>,1,1,183849,774
Control_TS_17_B,1,test,P,134,1,620,350,P,1,<rshift>,1,1,184849,726
Control_TS_17_B,1,test,P,135,2,820,350,P,1,<rshift>,1,1,185849,568
Control_TS_17_B,1,test,P,136,1,620,350,P,1,<rshift>,1,1,186849,451
Control_TS_17_B,1,test,P,137,4,820,550,P,1,<rshift>,1,1,187849,344
Control_TS_17_B,1,test,P,138,1,620,350,P,1,<rshift>,1,1,188849,370
Control_TS_17_B,1,test,P,139,2,820,350,R,0,<rshift>,1,0,189849,333
Control_TS_17_B,1,test,P,140,4,820,550,P,1,<rshift>,1,1,190849,405
Control_TS_17_B,1,test,P,141,2,820,350,P,1,<rshift>,1,1,191849,311
Control_TS_17_B,1,test,P,142,4,820,550,R,0,<rshift>,1,0,192849,455
Control_TS_17_B,1,test,P,143,3,620,550,P,1,<rshift>,1,1,193849,595
Control_TS_17_B,1,test,P,144,4,820,550,P,1,<rshift>,1,1,194849,779
Control_TS_17_B,1,test,P,145,1,620,350,P,1,<rshift>,1,1,195849,647
Control_TS_17_B,1,test,P,146,3,620,550,R,0,NONE,0,1,196849,950
Control_TS_17_B,1,test,P,147,1,620,350,P,1,<rshift>,1,1,197849,649
Control_TS_17_B,1,test,P,148,2,820,350,P,1,<rshift>,1,1,198849,768
Control_TS_17_B,1,test,P,149,1,620,350,P,1,NONE,0,0,199849,950
Control_TS_17_B,1,test,P,150,4,820,550,R,0,NONE,0,1,200849,950
Control_TS_17_B,1,test,P,151,3,620,550,P,1,<rshift>,1,1,201849,323
Control_TS_17_B,1,test,P,152,3,620,550,P,1,<rshift>,1,1,202849,515
Control_TS_17_B,1,test,P,153,1,620,350,R,0,NONE,0,1,203849,950
Control_TS_17_B,1,test,P,154,2,820,350,P,1,<rshift>,1,1,204849,282
Control_TS_17_B,1,test,P,155,1,620,350,P,1,<rshift>,1,1,205849,381
Control_TS_17_B,1,test,P,156,1,620,350,R,0,NONE,0,1,206849,950
Control_TS_17_B,1,test,P,157,3,620,550,R,0,<rshift>,1,0,207849,333
Control_TS_17_B,1,test,P,158,1,620,350,P,1,NONE,0,0,208849,950
Control_TS_17_B,1,test,P,159,2,820,350,P,1,<rshift>,1,1,209849,614
Control_TS_17_B,1,test,P,160,1,620,350,P,1,NONE,0,0,210849,950
Control_TS_17_B,1,test,P,161,4,820,550,P,1,<rshift>,1,1,211849,191
Control_TS_17_B,1,test,P,162,4,820,550,P,1,<rshift>,1,1,212849,284
Control_TS_17_B,1,test,P,163,3,620,550,P,1,<rshift>,1,1,213849,455
Control_TS_17_B,1,test,P,164,2,820,350,P,1,<rshift>,1,1,214849,375
Control_TS_17_B,1,test,P,165,2,820,350,P,1,<rshift>,1,1,215849,433
Control_TS_17_B,1,test,P,166,4,820,550,P,1,<rshift>,1,1,216849,315
Control_TS_17_B,1,test,P,167,1,620,350,R,0,NONE,0,1,217849,950
Control_TS_17_B,1,test,P,168,4,820,550,P,1,<rshift>,1,1,218849,270
Control_TS_17_B,1,test,P,169,1,620,350,P,1,<rshift>,1,1,219849,354
Control_TS_17_B,1,test,P,170,3,620,550,P,1,<rshift>,1,1,220849,399
Control_TS_17_B,1,test,P,171,3,620,550,P,1,<rshift>,1,1,221849,592
Control_TS_17_B,1,test,P,172,3,620,550,P,1,<rshift>,1,1,222849,929
Control_TS_17_B,1,test,P,173,1,620,350,P,1,<rshift>,1,1,223849,681
Control_TS_17_B,1,test,P,174,3,620,550,R,0,NONE,0,1,224850,950
Control_TS_17_B,1,test,P,175,1,620,350,R,0,<rshift>,1,0,225849,418
Control_TS_17_B,1,test,P,176,2,820,350,P,1,<rshift>,1,1,226849,526
Control_TS_17_B,1,test,P,177,4,820,550,P,1,<rshift>,1,1,227849,842
Control_TS_17_B,1,test,P,178,4,820,550,P,1,NONE,0,0,228849,950
Control_TS_17_B,1,test,P,179,1,620,350,P,1,<rshift>,1,1,229849,396
Control_TS_17_B,1,test,P,180,4,820,550,P,1,<rshift>,1,1,230849,642
Control_TS_17_B,1,test,P,181,3,620,550,P,1,<rshift>,1,1,231849,610
Control_TS_17_B,1,test,P,182,1,620,350,P,1,<rshift>,1,1,232849,494
Control_TS_17_B,1,test,P,183,4,820,550,P,1,<rshift>,1,1,233849,478
Control_TS_17_B,1,test,P,184,1,620,350,P,1,<rshift>,1,1,234849,569
Control_TS_17_B,1,test,P,185,1,620,350,P,1,NONE,0,0,235849,950
Control_TS_17_B,1,test,P,186,2,820,350,P,1,<rshift>,1,1,236849,107
Control_TS_17_B,1,test,P,187,1,620,350,P,1,<rshift>,1,1,237849,491
Control_TS_17_B,1,test,P,188,1,620,350,P,1,NONE,0,0,238849,950
Control_TS_17_B,1,test,P,189,2,820,350,P,1,<rshift>,1,1,239849,546
Control_TS_17_B,1,test,P,190,1,620,350,P,1,<rshift>,1,1,240849,643
Control_TS_17_B,1,test,P,191,4,820,550,P,1,<rshift>,1,1,241849,467
Control_TS_17_B,1,test,P,192,1,620,350,P,1,NONE,0,0,242849,950
Control_TS_17_B,1,test,P,193,2,820,350,P,1,<rshift>,1,1,243849,601
Control_TS_17_B,1,test,P,194,1,620,350,P,1,<rshift>,1,1,244849,597
Control_TS_17_B,1,test,P,195,4,820,550,P,1,<rshift>,1,1,245849,351
Control_TS_17_B,1,test,P,196,4,820,550,P,1,<rshift>,1,1,246849,263
Control_TS_17_B,1,test,P,197,1,620,350,P,1,<rshift>,1,1,247849,336
Control_TS_17_B,1,test,P,198,4,820,550,P,1,<rshift>,1,1,248849,284
Control_TS_17_B,1,test,P,199,3,620,550,P,1,<rshift>,1,1,249849,269
Control_TS_17_B,1,test,P,200,2,820,350,R,0,<rshift>,1,0,250849,307
Control_TS_17_B,1,test,P,201,2,820,350,P,1,<rshift>,1,1,251849,531
Control_TS_17_B,1,test,P,202,3,620,550,R,0,NONE,0,1,252849,950
Control_TS_17_B,1,test,P,203,3,620,550,P,1,<rshift>,1,1,253849,677
Control_TS_17_B,1,test,P,204,3,620,550,P,1,<rshift>,1,1,254849,600
Control_TS_17_B,1,test,P,205,3,620,550,P,1,NONE,0,0,255849,950
Control_TS_17_B,1,test,P,206,4,820,550,R,0,<rshift>,1,0,256849,206
Control_TS_17_B,1,test,P,207,4,820,550,P,1,<rshift>,1,1,257849,640
Control_TS_17_B,1,test,P,208,4,820,550,P,1,NONE,0,0,258849,950
Control_TS_17_B,1,test,P,209,1,620,350,P,1,<rshift>,1,1,259849,56
Control_TS_17_B,1,test,P,210,1,620,350,P,1,NONE,0,0,260849,950
Control_TS_17_B,1,test,P,211,2,820,350,P,1,<rshift>,1,1,261849,326
Control_TS_17_B,1,test,P,212,2,820,350,P,1,<rshift>,1,1,262849,369
Control_TS_17_B,1,test,P,213,4,820,550,P,1,<rshift>,1,1,263849,684
Control_TS_17_B,1,test,P,214,4,820,550,P,1,<rshift>,1,1,264849,514
Control_TS_17_B,1,test,P,215,4,820,550,P,1,<rshift>,1,1,265849,349
Control_TS_17_B,1,test,P,216,1,620,350,R,0,<rshift>,1,0,266849,385
Control_TS_17_B,1,test,P,217,2,820,350,P,1,<rshift>,1,1,267849,411
Control_TS_17_B,1,test,P,218,4,820,550,P,1,<rshift>,1,1,268849,309
Control_TS_17_B,1,test,P,219,1,620,350,P,1,<rshift>,1,1,269849,540
Control_TS_17_B,1,test,P,220,4,820,550,P,1,<rshift>,1,1,270849,532
Control_TS_17_B,1,test,P,221,1,620,350,P,1,<rshift>,1,1,271849,299
Control_TS_17_B,1,test,P,222,2,820,350,P,1,<rshift>,1,1,272849,309
Control_TS_17_B,1,test,P,223,4,820,550,P,1,<rshift>,1,1,273849,304
Control_TS_17_B,1,test,P,224,2,820,350,P,1,<rshift>,1,1,274849,342
Control_TS_17_B,1,test,P,225,3,620,550,P,1,<rshift>,1,1,275850,400
Control_TS_17_B,1,test,P,226,1,620,350,P,1,<rshift>,1,1,276849,538
Control_TS_17_B,1,test,P,227,1,620,350,R,0,NONE,0,1,277849,950
Control_TS_17_B,1,test,P,228,1,620,350,P,1,<rshift>,1,1,278849,490
Control_TS_17_B,1,test,P,229,2,820,350,P,1,<rshift>,1,1,279849,345
Control_TS_17_B,1,test,P,230,1,620,350,P,1,<rshift>,1,1,280849,360
Control_TS_17_B,1,test,P,231,2,820,350,P,1,<rshift>,1,1,281849,317
Control_TS_17_B,1,test,P,232,2,820,350,P,1,<rshift>,1,1,282850,316
Control_TS_17_B,1,test,P,233,3,620,550,P,1,<rshift>,1,1,283849,336
Control_TS_17_B,1,test,P,234,2,820,350,P,1,<rshift>,1,1,284849,285
Control_TS_17_B,1,test,P,235,1,620,350,P,1,<rshift>,1,1,285850,329
Control_TS_17_B,1,test,P,236,2,820,350,P,1,<rshift>,1,1,286849,309
Control_TS_17_B,1,test,P,237,1,620,350,P,1,<rshift>,1,1,287849,362
Control_TS_17_B,1,test,P,238,1,620,350,P,1,<rshift>,1,1,288849,626
Control_TS_17_B,1,test,P,239,3,620,550,R,0,NONE,0,1,289849,950
Control_TS_17_B,1,test,P,240,4,820,550,P,1,<rshift>,1,1,290849,491
Control_TS_17_B,1,test,P,241,4,820,550,P,1,<rshift>,1,1,291849,731
Control_TS_17_B,1,test,P,242,4,820,550,P,1,NONE,0,0,292849,950
Control_TS_17_B,1,test,P,243,3,620,550,P,1,<rshift>,1,1,293849,305
Control_TS_17_B,1,test,P,244,4,820,550,P,1,<rshift>,1,1,294849,515
Control_TS_17_B,1,test,P,245,3,620,550,R,0,<rshift>,1,0,295849,592
Control_TS_17_B,1,test,P,246,1,620,350,P,1,NONE,0,0,296849,950
Control_TS_17_B,1,test,P,247,2,820,350,P,1,<rshift>,1,1,297849,425
Control_TS_17_B,1,test,P,248,1,620,350,R,0,NONE,0,1,298849,950
Control_TS_17_B,1,test,P,249,1,620,350,P,1,<rshift>,1,1,299849,542
Control_TS_17_B,1,test,P,250,3,620,550,R,0,NONE,0,1,300850,950
Control_TS_17_B,1,test,P,251,2,820,350,P,1,<rshift>,1,1,301849,296
Control_TS_17_B,1,test,P,252,2,820,350,P,1,<rshift>,1,1,302849,516
Control_TS_17_B,1,test,P,253,3,620,550,P,1,<rshift>,1,1,303849,440
Control_TS_17_B,1,test,P,254,3,620,550,P,1,<rshift>,1,1,304849,886
Control_TS_17_B,1,test,P,255,3,620,550,R,0,NONE,0,1,305849,950
Control_TS_17_B,1,test,P,256,2,820,350,P,1,<rshift>,1,1,306849,922
Control_TS_17_B,1,test,P,257,3,620,550,P,1,NONE,0,0,307849,950
Control_TS_17_B,1,test,P,258,2,820,350,R,0,<rshift>,1,0,308849,0
Control_TS_17_B,1,test,P,259,2,820,350,P,1,<rshift>,1,1,309849,438
Control_TS_17_B,1,test,P,260,1,620,350,P,1,<rshift>,1,1,310849,516
Control_TS_17_B,1,test,P,261,3,620,550,P,1,<rshift>,1,1,311849,379
Control_TS_17_B,1,test,P,262,1,620,350,P,1,<rshift>,1,1,312849,454
Control_TS_17_B,1,test,P,263,1,620,350,R,0,<rshift>,1,0,313850,371
Control_TS_17_B,1,test,P,264,1,620,350,P,1,NONE,0,0,314849,950
Control_TS_17_B,1,test,P,265,2,820,350,P,1,<rshift>,1,1,315849,427
Control_TS_17_B,1,test,P,266,3,620,550,R,0,NONE,0,1,316849,950
Control_TS_17_B,1,test,P,267,4,820,550,P,1,<rshift>,1,1,317849,394
Control_TS_17_B,1,test,P,268,2,820,350,P,1,<rshift>,1,1,318849,303
Control_TS_17_B,1,test,P,269,4,820,550,P,1,<rshift>,1,1,319849,337
Control_TS_17_B,1,test,P,270,1,620,350,R,0,<rshift>,1,0,320849,439
Control_TS_17_B,1,test,P,271,1,620,350,P,1,<rshift>,1,1,321849,596
Control_TS_17_B,1,test,P,272,3,620,550,P,1,<rshift>,1,1,322849,618
Control_TS_17_B,1,test,P,273,3,620,550,P,1,<rshift>,1,1,323849,890
Control_TS_17_B,1,test,P,274,4,820,550,P,1,<rshift>,1,1,324849,791
Control_TS_17_B,1,test,P,275,4,820,550,P,1,<rshift>,1,1,325849,467
Control_TS_17_B,1,test,P,276,3,620,550,P,1,<rshift>,1,1,326849,396
Control_TS_17_B,1,test,P,277,3,620,550,R,0,<rshift>,1,0,327849,386
Control_TS_17_B,1,test,P,278,3,620,550,P,1,<rshift>,1,1,328849,827
Control_TS_17_B,1,test,P,279,1,620,350,R,0,NONE,0,1,329849,950
Control_TS_17_B,1,test,P,280,1,620,350,P,1,NONE,0,0,330849,950
Control_TS_17_B,1,test,P,281,3,620,550,P,1,<rshift>,1,1,331849,312
Control_TS_17_B,1,test,P,282,3,620,550,P,1,<rshift>,1,1,332849,376
Control_TS_17_B,1,test,P,283,4,820,550,P,1,<rshift>,1,1,333850,683
Control_TS_17_B,1,test,P,284,1,620,350,R,0,<rshift>,1,0,334850,397
Control_TS_17_B,1,test,P,285,2,820,350,P,1,<rshift>,1,1,335850,837
Control_TS_17_B,1,test,P,286,4,820,550,P,1,<rshift>,1,1,336849,692
Control_TS_17_B,1,test,P,287,1,620,350,P,1,<rshift>,1,1,337849,429
Control_TS_17_B,1,test,P,288,3,620,550,R,0,NONE,0,1,338849,950
Control_TS_17_B,1,test,P,289,1,620,350,R,0,NONE,0,1,339849,950
Control_TS_17_B,1,test,P,290,3,620,550,P,1,<rshift>,1,1,340849,545
Control_TS_17_B,1,test,P,291,3,620,550,P,1,<rshift>,1,1,341849,489
Control_TS_17_B,1,test,P,292,2,820,350,R,0,NONE,0,1,342849,950
Control_TS_17_B,1,test,P,293,2,820,350,P,1,<rshift>,1,1,343849,643
Control_TS_17_B,1,test,P,294,3,620,550,R,0,NONE,0,1,344849,950
Control_TS_17_B,1,test,P,295,3,620,550,R,0,<rshift>,1,0,345849,557
Control_TS_17_B,1,test,P,296,3,620,550,P,1,NONE,0,0,346849,950
Control_TS_17_B,1,test,P,297,3,620,550,R,0,NONE,0,1,347850,950
Control_TS_17_B,1,test,P,298,2,820,350,P,1,<rshift>,1,1,348849,331
Control_TS_17_B,1,test,P,299,2,820,350,R,0,NONE,0,1,349849,950
Control_TS_17_B,1,test,P,300,4,820,550,R,0,<rshift>,1,0,350849,333
Control_TS_17_B,2,practice,R,1,1,620,350,R,1,<rshift>,1,1,361176,672
Control_TS_17_B,2,practice,R,2,3,620,550,R,1,<rshift>,1,1,362175,414
Control_TS_17_B,2,practice,R,3,3,620,550,R,1,<rshift>,1,1,363176,464
Control_TS_17_B,2,practice,R,4,4,820,550,R,1,<rshift>,1,1,364176,376
Control_TS_17_B,2,practice,R,5,4,820,550,P,0,<rshift>,1,0,365176,334
Control_TS_17_B,2,practice,R,6,3,620,550,R,1,<rshift>,1,1,366570,552
Control_TS_17_B,2,practice,R,7,4,820,550,R,1,<rshift>,1,1,367175,668
Control_TS_17_B,2,practice,R,8,4,820,550,R,1,<rshift>,1,1,368175,743
Control_TS_17_B,2,practice,R,9,2,820,350,P,0,NONE,0,1,369176,950
Control_TS_17_B,2,practice,R,10,2,820,350,R,1,<rshift>,1,1,370176,492
Control_TS_17_B,3,test,R,1,2,820,350,R,1,NONE,0,0,376086,950
Control_TS_17_B,3,test,R,2,3,620,550,R,1,<rshift>,1,1,377085,529
Control_TS_17_B,3,test,R,3,2,820,350,R,1,<rshift>,1,1,378085,314
Control_TS_17_B,3,test,R,4,4,820,550,P,0,<rshift>,1,0,379086,278
Control_TS_17_B,3,test,R,5,1,620,350,P,0,NONE,0,1,380085,950
Control_TS_17_B,3,test,R,6,2,820,350,R,1,<rshift>,1,1,381085,430
Control_TS_17_B,3,test,R,7,2,820,350,R,1,NONE,0,0,382085,950
Control_TS_17_B,3,test,R,8,3,620,550,R,1,<rshift>,1,1,383085,353
Control_TS_17_B,3,test,R,9,4,820,550,P,0,<rshift>,1,0,384086,339
Control_TS_17_B,3,test,R,10,3,620,550,R,1,<rshift>,1,1,385085,714
Control_TS_17_B,3,test,R,11,3,620,550,R,1,<rshift>,1,1,386085,782
Control_TS_17_B,3,test,R,12,2,820,350,R,1,NONE,0,0,387085,950
Control_TS_17_B,3,test,R,13,4,820,550,R,1,<rshift>,1,1,388085,608
Control_TS_17_B,3,test,R,14,2,820,350,R,1,<rshift>,1,1,389085,380
Control_TS_17_B,3,test,R,15,2,820,350,R,1,<rshift>,1,1,390085,326
Control_TS_17_B,3,test,R,16,1,620,350,R,1,<rshift>,1,1,391085,286
Control_TS_17_B,3,test,R,17,3,620,550,R,1,<rshift>,1,1,392085,280
Control_TS_17_B,3,test,R,18,3,620,550,R,1,<rshift>,1,1,393085,515
Control_TS_17_B,3,test,R,19,4,820,550,R,1,<rshift>,1,1,394085,454
Control_TS_17_B,3,test,R,20,1,620,350,R,1,<rshift>,1,1,395085,359
Control_TS_17_B,3,test,R,21,4,820,550,R,1,<rshift>,1,1,396085,349
Control_TS_17_B,3,test,R,22,4,820,550,P,0,<rshift>,1,0,397085,179
Control_TS_17_B,3,test,R,23,3,620,550,R,1,<rshift>,1,1,398085,687
Control_TS_17_B,3,test,R,24,4,820,550,P,0,NONE,0,1,399085,950
Control_TS_17_B,3,test,R,25,2,820,350,R,1,<rshift>,1,1,400085,434
Control_TS_17_B,3,test,R,26,4,820,550,R,1,<rshift>,1,1,401086,574
Control_TS_17_B,3,test,R,27,1,620,350,R,1,<rshift>,1,1,402086,475
Control_TS_17_B,3,test,R,28,2,820,350,R,1,<rshift>,1,1,403085,411
Control_TS_17_B,3,test,R,29,1,620,350,R,1,<rshift>,1,1,404085,333
Control_TS_17_B,3,test,R,30,2,820,350,R,1,<rshift>,1,1,405085,357
Control_TS_17_B,3,test,R,31,4,820,550,P,0,<rshift>,1,0,406085,298
Control_TS_17_B,3,test,R,32,4,820,550,P,0,NONE,0,1,407085,950
Control_TS_17_B,3,test,R,33,4,820,550,R,1,<rshift>,1,1,408085,482
Control_TS_17_B,3,test,R,34,2,820,350,R,1,<rshift>,1,1,409085,590
Control_TS_17_B,3,test,R,35,1,620,350,R,1,<rshift>,1,1,410085,461
Control_TS_17_B,3,test,R,36,4,820,550,R,1,<rshift>,1,1,411085,440
Control_TS_17_B,3,test,R,37,2,820,350,R,1,<rshift>,1,1,412085,414
Control_TS_17_B,3,test,R,38,2,820,350,P,0,<rshift>,1,0,413085,357
Control_TS_17_B,3,test,R,39,3,620,550,R,1,<rshift>,1,1,414086,516
Control_TS_17_B,3,test,R,40,2,820,350,R,1,<rshift>,1,1,415086,479
Control_TS_17_B,3,test,R,41,3,620,550,P,0,<rshift>,1,0,416085,474
Control_TS_17_B,3,test,R,42,2,820,350,P,0,NONE,0,1,417086,950
Control_TS_17_B,3,test,R,43,3,620,550,R,1,<rshift>,1,1,418085,666
Control_TS_17_B,3,test,R,44,3,620,550,R,1,NONE,0,0,419085,950
Control_TS_17_B,3,test,R,45,1,620,350,R,1,<rshift>,1,1,420085,424
Control_TS_17_B,3,test,R,46,3,620,550,R,1,<rshift>,1,1,421085,463
Control_TS_17_B,3,test,R,47,2,820,350,R,1,<rshift>,1,1,422085,675
Control_TS_17_B,3,test,R,48,4,820,550,R,1,<rshift>,1,1,423085,378
Control_TS_17_B,3,test,R,49,3,620,550,P,0,NONE,0,1,424085,950
Control_TS_17_B,3,test,R,50,1,620,350,R,1,<rshift>,1,1,425085,396
Control_TS_17_B,3,test,R,51,3,620,550,R,1,<rshift>,1,1,426085,414
Control_TS_17_B,3,test,R,52,1,620,350,R,1,<rshift>,1,1,427086,550
Control_TS_17_B,3,test,R,53,1,620,350,P,0,NONE,0,1,428085,950
Control_TS_17_B,3,test,R,54,3,620,550,R,1,<rshift>,1,1,429085,488
Control_TS_17_B,3,test,R,55,3,620,550,R,1,<rshift>,1,1,430085,456
Control_TS_17_B,3,test,R,56,4,820,550,R,1,<rshift>,1,1,431085,515
Control_TS_17_B,3,test,R,57,3,620,550,R,1,<rshift>,1,1,432085,515
Control_TS_17_B,3,test,R,58,3,620,550,R,1,<rshift>,1,1,433085,499
Control_TS_17_B,3,test,R,59,3,620,550,R,1,NONE,0,0,434085,950
Control_TS_17_B,3,test,R,60,2,820,350,R,1,<rshift>,1,1,435085,154
Control_TS_17_B,3,test,R,61,3,620,550,R,1,<rshift>,1,1,436085,498
Control_TS_17_B,3,test,R,62,3,620,550,R,1,<rshift>,1,1,437085,371
Control_TS_17_B,3,test,R,63,3,620,550,R,1,<rshift>,1,1,438085,314
Control_TS_17_B,3,test,R,64,3,620,550,P,0,NONE,0,1,439086,950
Control_TS_17_B,3,test,R,65,1,620,350,R,1,<rshift>,1,1,440085,364
Control_TS_17_B,3,test,R,66,2,820,350,R,1,<rshift>,1,1,441085,301
Control_TS_17_B,3,test,R,67,4,820,550,R,1,<rshift>,1,1,442085,336
Control_TS_17_B,3,test,R,68,4,820,550,P,0,<rshift>,1,0,443085,410
Control_TS_17_B,3,test,R,69,2,820,350,R,1,<rshift>,1,1,444085,474
Control_TS_17_B,3,test,R,70,4,820,550,R,1,<rshift>,1,1,445085,453
Control_TS_17_B,3,test,R,71,1,620,350,R,1,NONE,0,0,446085,950
Control_TS_17_B,3,test,R,72,4,820,550,R,1,<rshift>,1,1,447085,483
Control_TS_17_B,3,test,R,73,2,820,350,R,1,<rshift>,1,1,448085,487
Control_TS_17_B,3,test,R,74,2,820,350,P,0,NONE,0,1,449086,950
Control_TS_17_B,3,test,R,75,3,620,550,R,1,<rshift>,1,1,450085,312
Control_TS_17_B,3,test,R,76,1,620,350,R,1,<rshift>,1,1,451085,371
Control_TS_17_B,3,test,R,77,3,620,550,R,1,<rshift>,1,1,452086,515
Control_TS_17_B,3,test,R,78,2,820,350,P,0,NONE,0,1,453085,950
Control_TS_17_B,3,test,R,79,4,820,550,R,1,<rshift>,1,1,454085,535
Control_TS_17_B,3,test,R,80,4,820,550,R,1,NONE,0,0,455085,950
Control_TS_17_B,3,test,R,81,4,820,550,P,0,<rshift>,1,0,456085,468
Control_TS_17_B,3,test,R,82,3,620,550,R,1,<rshift>,1,1,457085,396
Control_TS_17_B,3,test,R,83,3,620,550,R,1,<rshift>,1,1,458085,403
Control_TS_17_B,3,test,R,84,1,620,350,R,1,<rshift>,1,1,459085,362
Control_TS_17_B,3,test,R,85,3,620,550,P,0,NONE,0,1,460085,950
Control_TS_17_B,3,test,R,86,1,620,350,P,0,NONE,0,1,461085,950
Control_TS_17_B,3,test,R,87,3,620,550,R,1,<rshift>,1,1,462085,395
Control_TS_17_B,3,test,R,88,4,820,550,R,1,<rshift>,1,1,463085,566
Control_TS_17_B,3,test,R,89,2,820,350,R,1,NONE,0,0,464085,950
Control_TS_17_B,3,test,R,90,4,820,550,R,1,<rshift>,1,1,465085,348
Control_TS_17_B,3,test,R,91,2,820,350,R,1,<rshift>,1,1,466085,515
Control_TS_17_B,3,test,R,92,3,620,550,R,1,<rshift>,1,1,467085,419
Control_TS_17_B,3,test,R,93,4,820,550,P,0,NONE,0,1,468085,951
Control_TS_17_B,3,test,R,94,2,820,350,R,1,<rshift>,1,1,469085,391
Control_TS_17_B,3,test,R,95,4,820,550,R,1,<rshift>,1,1,470085,481
Control_TS_17_B,3,test,R,96,3,620,550,R,1,<rshift>,1,1,471085,388
Control_TS_17_B,3,test,R,97,1,620,350,R,1,<rshift>,1,1,472085,494
Control_TS_17_B,3,test,R,98,2,820,350,P,0,NONE,0,1,473085,950
Control_TS_17_B,3,test,R,99,4,820,550,R,1,<rshift>,1,1,474085,395
Control_TS_17_B,3,test,R,100,4,820,550,P,0,NONE,0,1,475085,950
Control_TS_17_B,3,test,R,101,1,620,350,P,0,NONE,0,1,476085,950
Control_TS_17_B,3,test,R,102,4,820,550,R,1,<rshift>,1,1,477085,326
Control_TS_17_B,3,test,R,103,1,620,350,R,1,<rshift>,1,1,478085,410
Control_TS_17_B,3,test,R,104,2,820,350,R,1,<rshift>,1,1,479085,469
Control_TS_17_B,3,test,R,105,1,620,350,R,1,<rshift>,1,1,480085,515
Control_TS_17_B,3,test,R,106,4,820,550,R,1,<rshift>,1,1,481086,532
Control_TS_17_B,3,test,R,107,1,620,350,R,1,<rshift>,1,1,482085,485
Control_TS_17_B,3,test,R,108,1,620,350,R,1,<rshift>,1,1,483085,515
Control_TS_17_B,3,test,R,109,3,620,550,R,1,<rshift>,1,1,484085,444
Control_TS_17_B,3,test,R,110,2,820,350,R,1,<rshift>,1,1,485085,436
Control_TS_17_B,3,test,R,111,4,820,550,R,1,<rshift>,1,1,486085,399
Control_TS_17_B,3,test,R,112,3,620,550,R,1,<rshift>,1,1,487085,515
Control_TS_17_B,3,test,R,113,3,620,550,P,0,NONE,0,1,488085,950
Control_TS_17_B,3,test,R,114,2,820,350,R,1,<rshift>,1,1,489085,440
Control_TS_17_B,3,test,R,115,1,620,350,P,0,NONE,0,1,490086,950
Control_TS_17_B,3,test,R,116,4,820,550,R,1,<rshift>,1,1,491086,419
Control_TS_17_B,3,test,R,117,2,820,350,R,1,<rshift>,1,1,492085,426
Control_TS_17_B,3,test,R,118,2,820,350,R,1,<rshift>,1,1,493085,442
Control_TS_17_B,3,test,R,119,2,820,350,R,1,NONE,0,0,494086,950
Control_TS_17_B,3,test,R,120,3,620,550,R,1,<rshift>,1,1,495085,378
Control_TS_17_B,3,test,R,121,2,820,350,R,1,<rshift>,1,1,496085,385
Control_TS_17_B,3,test,R,122,3,620,550,P,0,<rshift>,1,0,497085,393
Control_TS_17_B,3,test,R,123,3,620,550,R,1,<rshift>,1,1,498085,584
Control_TS_17_B,3,test,R,124,3,620,550,R,1,NONE,0,0,499085,950
Control_TS_17_B,3,test,R,125,4,820,550,R,1,<rshift>,1,1,500085,319
Control_TS_17_B,3,test,R,126,1,620,350,R,1,<rshift>,1,1,501085,351
Control_TS_17_B,3,test,R,127,4,820,550,R,1,<rshift>,1,1,502085,357
Control_TS_17_B,3,test,R,128,1,620,350,R,1,<rshift>,1,1,503085,573
Control_TS_17_B,3,test,R,129,3,620,550,R,1,<rshift>,1,1,504085,403
Control_TS_17_B,3,test,R,130,2,820,350,R,1,<rshift>,1,1,505085,396
Control_TS_17_B,3,test,R,131,1,620,350,R,1,<rshift>,1,1,506085,459
Control_TS_17_B,3,test,R,132,2,820,350,P,0,NONE,0,1,507085,950
Control_TS_17_B,3,test,R,133,2,820,350,R,1,<rshift>,1,1,508085,526
Control_TS_17_B,3,test,R,134,4,820,550,R,1,<rshift>,1,1,509085,485
Control_TS_17_B,3,test,R,135,1,620,350,R,1,<rshift>,1,1,510086,446
Control_TS_17_B,3,test,R,136,4,820,550,R,1,<rshift>,1,1,511085,346
Control_TS_17_B,3,test,R,137,2,820,350,R,1,<rshift>,1,1,512085,432
Control_TS_17_B,3,test,R,138,3,620,550,R,1,<rshift>,1,1,513085,578
Control_TS_17_B,3,test,R,139,3,620,550,P,0,NONE,0,1,514085,950
Control_TS_17_B,3,test,R,140,1,620,350,R,1,<rshift>,1,1,515085,332
Control_TS_17_B,3,test,R,141,2,820,350,R,1,<rshift>,1,1,516085,421
Control_TS_17_B,3,test,R,142,1,620,350,P,0,<rshift>,1,0,517085,347
Control_TS_17_B,3,test,R,143,2,820,350,P,0,NONE,0,1,518085,950
Control_TS_17_B,3,test,R,144,1,620,350,R,1,<rshift>,1,1,519085,414
Control_TS_17_B,3,test,R,145,4,820,550,R,1,<rshift>,1,1,520085,567
Control_TS_17_B,3,test,R,146,4,820,550,R,1,<rshift>,1,1,521085,536
Control_TS_17_B,3,test,R,147,1,620,350,R,1,<rshift>,1,1,522085,455
Control_TS_17_B,3,test,R,148,3,620,550,R,1,<rshift>,1,1,523085,437
Control_TS_17_B,3,test,R,149,3,620,550,P,0,<rshift>,1,0,524085,561
Control_TS_17_B,3,test,R,150,4,820,550,P,0,<rshift>,1,0,525085,452
Control_TS_17_B,3,test,R,151,1,620,350,R,1,<rshift>,1,1,526085,362
Control_TS_17_B,3,test,R,152,3,620,550,R,1,<rshift>,1,1,527085,892
Control_TS_17_B,3,test,R,153,1,620,350,R,1,<rshift>,1,1,528085,659
Control_TS_17_B,3,test,R,154,3,620,550,R,1,<rshift>,1,1,529085,420
Control_TS_17_B,3,test,R,155,1,620,350,P,0,NONE,0,1,530086,950
Control_TS_17_B,3,test,R,156,1,620,350,R,1,<rshift>,1,1,531085,777
Control_TS_17_B,3,test,R,157,2,820,350,P,0,NONE,0,1,532085,950
Control_TS_17_B,3,test,R,158,2,820,350,R,1,<rshift>,1,1,533085,432
Control_TS_17_B,3,test,R,159,1,620,350,R,1,<rshift>,1,1,534085,291
Control_TS_17_B,3,test,R,160,4,820,550,R,1,<rshift>,1,1,535085,293
Control_TS_17_B,3,test,R,161,1,620,350,R,1,<rshift>,1,1,536085,354
Control_TS_17_B,3,test,R,162,3,620,550,R,1,<rshift>,1,1,537085,323
Control_TS_17_B,3,test,R,163,3,620,550,P,0,NONE,0,1,538085,950
Control_TS_17_B,3,test,R,164,4,820,550,P,0,<rshift>,1,0,539085,365
Control_TS_17_B,3,test,R,165,3,620,550,R,1,<rshift>,1,1,540085,487
Control_TS_17_B,3,test,R,166,1,620,350,R,1,<rshift>,1,1,541085,648
Control_TS_17_B,3,test,R,167,1,620,350,R,1,<rshift>,1,1,542085,656
Control_TS_17_B,3,test,R,168,2,820,350,R,1,<rshift>,1,1,543085,584
Control_TS_17_B,3,test,R,169,3,620,550,R,1,<rshift>,1,1,544085,440
Control_TS_17_B,3,test,R,170,1,620,350,P,0,NONE,0,1,545085,950
Control_TS_17_B,3,test,R,171,4,820,550,R,1,<rshift>,1,1,546085,455
Control_TS_17_B,3,test,R,172,3,620,550,R,1,<rshift>,1,1,547085,361
Control_TS_17_B,3,test,R,173,3,620,550,R,1,<rshift>,1,1,548085,483
Control_TS_17_B,3,test,R,174,3,620,550,R,1,<rshift>,1,1,549085,562
Control_TS_17_B,3,test,R,175,3,620,550,R,1,NONE,0,0,550085,951
Control_TS_17_B,3,test,R,176,3,620,550,R,1,<rshift>,1,1,551085,370
Control_TS_17_B,3,test,R,177,1,620,350,R,1,<rshift>,1,1,552085,459
Control_TS_17_B,3,test,R,178,4,820,550,R,1,<rshift>,1,1,553086,453
Control_TS_17_B,3,test,R,179,4,820,550,R,1,<rshift>,1,1,554086,452
Control_TS_17_B,3,test,R,180,3,620,550,R,1,<rshift>,1,1,555085,329
Control_TS_17_B,3,test,R,181,2,820,350,R,1,<rshift>,1,1,556085,367
Control_TS_17_B,3,test,R,182,1,620,350,R,1,<rshift>,1,1,557085,314
Control_TS_17_B,3,test,R,183,3,620,550,R,1,<rshift>,1,1,558086,313
Control_TS_17_B,3,test,R,184,1,620,350,R,1,<rshift>,1,1,559085,336
Control_TS_17_B,3,test,R,185,1,620,350,R,1,<rshift>,1,1,560085,393
Control_TS_17_B,3,test,R,186,3,620,550,R,1,<rshift>,1,1,561085,339
Control_TS_17_B,3,test,R,187,2,820,350,R,1,<rshift>,1,1,562085,457
Control_TS_17_B,3,test,R,188,2,820,350,R,1,<rshift>,1,1,563086,449
Control_TS_17_B,3,test,R,189,3,620,550,R,1,<rshift>,1,1,564085,434
Control_TS_17_B,3,test,R,190,3,620,550,P,0,<rshift>,1,0,565085,366
Control_TS_17_B,3,test,R,191,2,820,350,R,1,<rshift>,1,1,566085,522
Control_TS_17_B,3,test,R,192,4,820,550,R,1,<rshift>,1,1,567085,622
Control_TS_17_B,3,test,R,193,3,620,550,R,1,<rshift>,1,1,568085,529
Control_TS_17_B,3,test,R,194,1,620,350,R,1,<rshift>,1,1,569085,454
Control_TS_17_B,3,test,R,195,4,820,550,R,1,<rshift>,1,1,570085,390
Control_TS_17_B,3,test,R,196,3,620,550,P,0,<rshift>,1,0,571085,304
Control_TS_17_B,3,test,R,197,4,820,550,P,0,NONE,0,1,572085,950
Control_TS_17_B,3,test,R,198,4,820,550,R,1,<rshift>,1,1,573085,593
Control_TS_17_B,3,test,R,199,1,620,350,R,1,<rshift>,1,1,574085,364
Control_TS_17_B,3,test,R,200,2,820,350,R,1,<rshift>,1,1,575085,292
Control_TS_17_B,3,test,R,201,2,820,350,R,1,<rshift>,1,1,576085,449
Control_TS_17_B,3,test,R,202,2,820,350,P,0,NONE,0,1,577085,950
Control_TS_17_B,3,test,R,203,3,620,550,R,1,<rshift>,1,1,578085,314
Control_TS_17_B,3,test,R,204,2,820,350,R,1,NONE,0,0,579085,950
Control_TS_17_B,3,test,R,205,1,620,350,R,1,<rshift>,1,1,580085,716
Control_TS_17_B,3,test,R,206,2,820,350,P,0,<rshift>,1,0,581085,341
Control_TS_17_B,3,test,R,207,1,620,350,P,0,<rshift>,1,0,582085,487
Control_TS_17_B,3,test,R,208,3,620,550,R,1,<rshift>,1,1,583085,783
Control_TS_17_B,3,test,R,209,2,820,350,R,1,NONE,0,0,584085,950
Control_TS_17_B,3,test,R,210,3,620,550,P,0,<rshift>,1,0,585085,22
Control_TS_17_B,3,test,R,211,2,820,350,R,1,<rshift>,1,1,586085,697
Control_TS_17_B,3,test,R,212,1,620,350,R,1,<rshift>,1,1,587085,371
Control_TS_17_B,3,test,R,213,1,620,350,R,1,<rshift>,1,1,588085,309
Control_TS_17_B,3,test,R,214,1,620,350,R,1,<rshift>,1,1,589085,323
Control_TS_17_B,3,test,R,215,2,820,350,P,0,<rshift>,1,0,590085,299
Control_TS_17_B,3,test,R,216,2,820,350,R,1,<rshift>,1,1,591086,422
Control_TS_17_B,3,test,R,217,4,820,550,R,1,<rshift>,1,1,592085,388
Control_TS_17_B,3,test,R,218,2,820,350,P,0,NONE,0,1,593085,950
Control_TS_17_B,3,test,R,219,4,820,550,R,1,<rshift>,1,1,594085,411
Control_TS_17_B,3,test,R,220,3,620,550,R,1,<rshift>,1,1,595085,752
Control_TS_17_B,3,test,R,221,4,820,550,R,1,<rshift>,1,1,596085,762
Control_TS_17_B,3,test,R,222,4,820,550,R,1,<rshift>,1,1,597085,521
Control_TS_17_B,3,test,R,223,4,820,550,R,1,<rshift>,1,1,598085,429
Control_TS_17_B,3,test,R,224,1,620,350,R,1,<rshift>,1,1,599085,326
Control_TS_17_B,3,test,R,225,4,820,550,R,1,<rshift>,1,1,600085,317
Control_TS_17_B,3,test,R,226,1,620,350,R,1,<rshift>,1,1,601085,300
Control_TS_17_B,3,test,R,227,3,620,550,R,1,<rshift>,1,1,602085,349
Control_TS_17_B,3,test,R,228,2,820,350,R,1,<rshift>,1,1,603085,279
Control_TS_17_B,3,test,R,229,1,620,350,R,1,<rshift>,1,1,604085,343
Control_TS_17_B,3,test,R,230,4,820,550,R,1,<rshift>,1,1,605086,95
Control_TS_17_B,3,test,R,231,4,820,550,R,1,<rshift>,1,1,606086,343
Control_TS_17_B,3,test,R,232,2,820,350,R,1,<rshift>,1,1,607085,230
Control_TS_17_B,3,test,R,233,1,620,350,R,1,<rshift>,1,1,608085,331
Control_TS_17_B,3,test,R,234,1,620,350,R,1,<rshift>,1,1,609085,307
Control_TS_17_B,3,test,R,235,2,820,350,R,1,<rshift>,1,1,610085,325
Control_TS_17_B,3,test,R,236,4,820,550,R,1,<rshift>,1,1,611085,219
Control_TS_17_B,3,test,R,237,3,620,550,P,0,<rshift>,1,0,612085,185
Control_TS_17_B,3,test,R,238,4,820,550,R,1,<rshift>,1,1,613085,328
Control_TS_17_B,3,test,R,239,4,820,550,R,1,<rshift>,1,1,614086,116
Control_TS_17_B,3,test,R,240,2,820,350,R,1,<rshift>,1,1,615086,487
Control_TS_17_B,3,test,R,241,2,820,350,R,1,<rshift>,1,1,616085,304
Control_TS_17_B,3,test,R,242,4,820,550,R,1,<rshift>,1,1,617085,634
Control_TS_17_B,3,test,R,243,2,820,350,R,1,NONE,0,0,618085,950
Control_TS_17_B,3,test,R,244,3,620,550,R,1,<rshift>,1,1,619085,296
Control_TS_17_B,3,test,R,245,3,620,550,R,1,<rshift>,1,1,620085,258
Control_TS_17_B,3,test,R,246,4,820,550,R,1,NONE,0,0,621085,950
Control_TS_17_B,3,test,R,247,2,820,350,R,1,<rshift>,1,1,622085,525
Control_TS_17_B,3,test,R,248,4,820,550,R,1,<rshift>,1,1,623085,790
Control_TS_17_B,3,test,R,249,4,820,550,R,1,<rshift>,1,1,624085,497
Control_TS_17_B,3,test,R,250,3,620,550,R,1,<rshift>,1,1,625085,361
Control_TS_17_B,3,test,R,251,2,820,350,R,1,<rshift>,1,1,626085,318
Control_TS_17_B,3,test,R,252,1,620,350,R,1,<rshift>,1,1,627085,345
Control_TS_17_B,3,test,R,253,2,820,350,R,1,<rshift>,1,1,628085,322
Control_TS_17_B,3,test,R,254,2,820,350,R,1,<rshift>,1,1,629085,448
Control_TS_17_B,3,test,R,255,3,620,550,P,0,<rshift>,1,0,630085,376
Control_TS_17_B,3,test,R,256,4,820,550,R,1,<rshift>,1,1,631085,397
Control_TS_17_B,3,test,R,257,2,820,350,R,1,<rshift>,1,1,632085,358
Control_TS_17_B,3,test,R,258,4,820,550,P,0,NONE,0,1,633085,950
Control_TS_17_B,3,test,R,259,2,820,350,R,1,<rshift>,1,1,634085,285
Control_TS_17_B,3,test,R,260,1,620,350,R,1,<rshift>,1,1,635085,345
Control_TS_17_B,3,test,R,261,2,820,350,R,1,<rshift>,1,1,636086,304
Control_TS_17_B,3,test,R,262,2,820,350,R,1,<rshift>,1,1,637086,753
Control_TS_17_B,3,test,R,263,2,820,350,R,1,<rshift>,1,1,638085,478
Control_TS_17_B,3,test,R,264,3,620,550,R,1,<rshift>,1,1,639086,290
Control_TS_17_B,3,test,R,265,4,820,550,R,1,<rshift>,1,1,640085,499
Control_TS_17_B,3,test,R,266,1,620,350,P,0,<rshift>,1,0,641085,374
Control_TS_17_B,3,test,R,267,1,620,350,P,0,NONE,0,1,642085,950
Control_TS_17_B,3,test,R,268,1,620,350,R,1,<rshift>,1,1,643085,433
Control_TS_17_B,3,test,R,269,2,820,350,R,1,<rshift>,1,1,644085,466
Control_TS_17_B,3,test,R,270,2,820,350,P,0,NONE,0,1,645085,950
Control_TS_17_B,3,test,R,271,1,620,350,P,0,NONE,0,1,646085,950
Control_TS_17_B,3,test,R,272,3,620,550,P,0,<rshift>,1,0,647085,343
Control_TS_17_B,3,test,R,273,2,820,350,R,1,<rshift>,1,1,648085,530
Control_TS_17_B,3,test,R,274,2,820,350,R,1,NONE,0,0,649085,950
Control_TS_17_B,3,test,R,275,2,820,350,R,1,<rshift>,1,1,650085,326
Control_TS_17_B,3,test,R,276,2,820,350,R,1,<rshift>,1,1,651085,604
Control_TS_17_B,3,test,R,277,2,820,350,R,1,<rshift>,1,1,652086,397
Control_TS_17_B,3,test,R,278,2,820,350,R,1,<rshift>,1,1,653085,585
Control_TS_17_B,3,test,R,279,1,620,350,R,1,<rshift>,1,1,654086,462
Control_TS_17_B,3,test,R,280,1,620,350,R,1,<rshift>,1,1,655085,811
Control_TS_17_B,3,test,R,281,4,820,550,R,1,<rshift>,1,1,656085,589
Control_TS_17_B,3,test,R,282,4,820,550,R,1,<rshift>,1,1,657085,640
Control_TS_17_B,3,test,R,283,3,620,550,P,0,NONE,0,1,658085,950
Control_TS_17_B,3,test,R,284,1,620,350,R,1,<rshift>,1,1,659085,278
Control_TS_17_B,3,test,R,285,3,620,550,R,1,<rshift>,1,1,660086,853
Control_TS_17_B,3,test,R,286,3,620,550,R,1,NONE,0,0,661085,950
Control_TS_17_B,3,test,R,287,3,620,550,R,1,<rshift>,1,1,662085,369
Control_TS_17_B,3,test,R,288,2,820,350,R,1,<rshift>,1,1,663085,561
Control_TS_17_B,3,test,R,289,1,620,350,R,1,<rshift>,1,1,664085,309
Control_TS_17_B,3,test,R,290,2,820,350,P,0,<rshift>,1,0,665085,258
Control_TS_17_B,3,test,R,291,3,620,550,P,0,<rshift>,1,0,666085,297
Control_TS_17_B,3,test,R,292,2,820,350,R,1,<rshift>,1,1,667085,497
Control_TS_17_B,3,test,R,293,4,820,550,R,1,<rshift>,1,1,668085,769
Control_TS_17_B,3,test,R,294,1,620,350,R,1,<rshift>,1,1,669085,381
Control_TS_17_B,3,test,R,295,1,620,350,P,0,<rshift>,1,0,670085,365
Control_TS_17_B,3,test,R,296,4,820,550,P,0,<rshift>,1,0,671085,343
Control_TS_17_B,3,test,R,297,3,620,550,P,0,<rshift>,1,0,672085,354
Control_TS_17_B,3,test,R,298,3,620,550,R,1,<rshift>,1,1,673086,591
Control_TS_17_B,3,test,R,299,4,820,550,R,1,<rshift>,1,1,674086,488
Control_TS_17_B,3,test,R,300,2,820,350,R,1,<rshift>,1,1,675085,515
