subnum,block,type,correctresponse,trial,choice,x,y,stim,present,response,responded,corr,starttime,rt
GRE,0,practice,P,1,3,656,591,P,1,<rshift>,1,1,35099,906
GRE,0,practice,P,2,2,856,391,P,1,<rshift>,1,1,36097,571
GRE,0,practice,P,3,4,856,591,R,0,<rshift>,1,0,37097,403
GRE,0,practice,P,4,3,656,591,P,1,<rshift>,1,1,38580,591
GRE,0,practice,P,5,2,856,391,R,0,NONE,0,1,39190,950
GRE,0,practice,P,6,3,656,591,P,1,<rshift>,1,1,40160,341
GRE,0,practice,P,7,1,656,391,P,1,<rshift>,1,1,41097,419
GRE,0,practice,P,8,1,656,391,P,1,<rshift>,1,1,42097,394
GRE,0,practice,P,9,3,656,591,P,1,<rshift>,1,1,43097,393
GRE,0,practice,P,10,3,656,591,P,1,<rshift>,1,1,44097,404
GRE,1,test,P,1,1,656,391,P,1,NONE,0,0,58333,950
GRE,1,test,P,2,3,656,591,P,1,<rshift>,1,1,59332,477
GRE,1,test,P,3,3,656,591,P,1,<rshift>,1,1,60332,406
GRE,1,test,P,4,2,856,391,R,0,<rshift>,1,0,61334,413
GRE,1,test,P,5,1,656,391,P,1,<rshift>,1,1,62333,467
GRE,1,test,P,6,4,856,591,P,1,<rshift>,1,1,63332,520
GRE,1,test,P,7,4,856,591,P,1,<rshift>,1,1,64332,498
GRE,1,test,P,8,1,656,391,P,1,<rshift>,1,1,65333,408
GRE,1,test,P,9,3,656,591,P,1,<rshift>,1,1,66333,370
GRE,1,test,P,10,4,856,591,P,1,<rshift>,1,1,67333,392
GRE,1,test,P,11,1,656,391,P,1,<rshift>,1,1,68333,397
GRE,1,test,P,12,3,656,591,P,1,<rshift>,1,1,69332,386
GRE,1,test,P,13,4,856,591,P,1,<rshift>,1,1,70332,379
GRE,1,test,P,14,4,856,591,P,1,<rshift>,1,1,71333,367
GRE,1,test,P,15,1,656,391,P,1,<rshift>,1,1,72332,444
GRE,1,test,P,16,4,856,591,R,0,NONE,0,1,73332,950
GRE,1,test,P,17,2,856,391,P,1,<rshift>,1,1,74332,317
GRE,1,test,P,18,4,856,591,P,1,<rshift>,1,1,75332,493
GRE,1,test,P,19,2,856,391,P,1,<rshift>,1,1,76333,450
GRE,1,test,P,20,2,856,391,P,1,<rshift>,1,1,77332,480
GRE,1,test,P,21,2,856,391,P,1,<rshift>,1,1,78332,354
GRE,1,test,P,22,1,656,391,P,1,<rshift>,1,1,79332,590
GRE,1,test,P,23,3,656,591,R,0,<rshift>,1,0,80332,414
GRE,1,test,P,24,4,856,591,P,1,<rshift>,1,1,81333,346
GRE,1,test,P,25,1,656,391,P,1,<rshift>,1,1,82333,405
GRE,1,test,P,26,1,656,391,P,1,<rshift>,1,1,83334,379
GRE,1,test,P,27,1,656,391,P,1,<rshift>,1,1,84332,387
GRE,1,test,P,28,2,856,391,P,1,<rshift>,1,1,85333,329
GRE,1,test,P,29,3,656,591,P,1,<rshift>,1,1,86332,427
GRE,1,test,P,30,3,656,591,R,0,<rshift>,1,0,87333,479
GRE,1,test,P,31,3,656,591,P,1,<rshift>,1,1,88332,494
GRE,1,test,P,32,4,856,591,R,0,<rshift>,1,0,89333,470
GRE,1,test,P,33,4,856,591,P,1,<rshift>,1,1,90332,520
GRE,1,test,P,34,3,656,591,P,1,<rshift>,1,1,91332,466
GRE,1,test,P,35,3,656,591,R,0,NONE,0,1,92333,950
GRE,1,test,P,36,1,656,391,P,1,<rshift>,1,1,93332,471
GRE,1,test,P,37,3,656,591,R,0,NONE,0,1,94332,950
GRE,1,test,P,38,3,656,591,P,1,<rshift>,1,1,95332,438
GRE,1,test,P,39,1,656,391,P,1,<rshift>,1,1,96332,463
GRE,1,test,P,40,4,856,591,P,1,<rshift>,1,1,97332,444
GRE,1,test,P,41,1,656,391,R,0,NONE,0,1,98332,950
GRE,1,test,P,42,1,656,391,P,1,<rshift>,1,1,99332,442
GRE,1,test,P,43,1,656,391,P,1,<rshift>,1,1,100332,396
GRE,1,test,P,44,3,656,591,P,1,<rshift>,1,1,101332,410
GRE,1,test,P,45,3,656,591,P,1,<rshift>,1,1,102332,362
GRE,1,test,P,46,2,856,391,P,1,<rshift>,1,1,103332,360
GRE,1,test,P,47,4,856,591,P,1,<rshift>,1,1,104332,494
GRE,1,test,P,48,2,856,391,P,1,<rshift>,1,1,105332,374
GRE,1,test,P,49,3,656,591,P,1,<rshift>,1,1,106332,440
GRE,1,test,P,50,2,856,391,P,1,<rshift>,1,1,107332,520
GRE,1,test,P,51,1,656,391,P,1,<rshift>,1,1,108332,526
GRE,1,test,P,52,2,856,391,P,1,<rshift>,1,1,109332,415
GRE,1,test,P,53,3,656,591,P,1,<rshift>,1,1,110333,336
GRE,1,test,P,54,3,656,591,P,1,<rshift>,1,1,111332,387
GRE,1,test,P,55,2,856,391,P,1,<rshift>,1,1,112332,393
GRE,1,test,P,56,2,856,391,P,1,<rshift>,1,1,113332,415
GRE,1,test,P,57,1,656,391,P,1,<rshift>,1,1,114332,373
GRE,1,test,P,58,4,856,591,R,0,<rshift>,1,0,115332,408
GRE,1,test,P,59,1,656,391,P,1,<rshift>,1,1,116332,406
GRE,1,test,P,60,1,656,391,P,1,<rshift>,1,1,117332,433
GRE,1,test,P,61,2,856,391,P,1,<rshift>,1,1,118333,308
GRE,1,test,P,62,2,856,391,P,1,<rshift>,1,1,119333,610
GRE,1,test,P,63,1,656,391,P,1,<rshift>,1,1,120332,438
GRE,1,test,P,64,3,656,591,P,1,<rshift>,1,1,121332,484
GRE,1,test,P,65,4,856,591,P,1,<rshift>,1,1,122332,423
GRE,1,test,P,66,3,656,591,P,1,<rshift>,1,1,123333,520
GRE,1,test,P,67,1,656,391,P,1,<rshift>,1,1,124332,335
GRE,1,test,P,68,1,656,391,P,1,<rshift>,1,1,125333,483
GRE,1,test,P,69,3,656,591,P,1,<rshift>,1,1,126332,391
GRE,1,test,P,70,1,656,391,P,1,<rshift>,1,1,127333,410
GRE,1,test,P,71,2,856,391,P,1,<rshift>,1,1,128332,326
GRE,1,test,P,72,2,856,391,P,1,<rshift>,1,1,129333,342
GRE,1,test,P,73,2,856,391,P,1,<rshift>,1,1,130332,337
GRE,1,test,P,74,2,856,391,P,1,<rshift>,1,1,131332,332
GRE,1,test,P,75,4,856,591,P,1,<rshift>,1,1,132332,379
GRE,1,test,P,76,2,856,391,R,0,<rshift>,1,0,133332,342
GRE,1,test,P,77,1,656,391,P,1,<rshift>,1,1,134332,369
GRE,1,test,P,78,1,656,391,R,0,<rshift>,1,0,135332,306
GRE,1,test,P,79,4,856,591,P,1,<rshift>,1,1,136332,448
GRE,1,test,P,80,2,856,391,R,0,NONE,0,1,137332,950
GRE,1,test,P,81,3,656,591,P,1,<rshift>,1,1,138332,410
GRE,1,test,P,82,2,856,391,P,1,<rshift>,1,1,139332,564
GRE,1,test,P,83,2,856,391,P,1,<rshift>,1,1,140332,380
GRE,1,test,P,84,1,656,391,R,0,NONE,0,1,141332,951
GRE,1,test,P,85,3,656,591,P,1,<rshift>,1,1,142332,367
GRE,1,test,P,86,1,656,391,P,1,<rshift>,1,1,143332,439
GRE,1,test,P,87,4,856,591,P,1,<rshift>,1,1,144332,469
GRE,1,test,P,88,4,856,591,P,1,<rshift>,1,1,145332,498
GRE,1,test,P,89,2,856,391,P,1,<rshift>,1,1,146333,350
GRE,1,test,P,90,1,656,391,R,0,NONE,0,1,147332,950
GRE,1,test,P,91,3,656,591,P,1,<rshift>,1,1,148332,291
GRE,1,test,P,92,2,856,391,P,1,<rshift>,1,1,149332,463
GRE,1,test,P,93,2,856,391,R,0,NONE,0,1,150332,951
GRE,1,test,P,94,2,856,391,P,1,<rshift>,1,1,151332,400
GRE,1,test,P,95,2,856,391,P,1,<rshift>,1,1,152333,358
GRE,1,test,P,96,2,856,391,P,1,<rshift>,1,1,153332,372
GRE,1,test,P,97,2,856,391,P,1,<rshift>,1,1,154332,342
GRE,1,test,P,98,3,656,591,P,1,<rshift>,1,1,155332,580
GRE,1,test,P,99,3,656,591,P,1,<rshift>,1,1,156332,459
GRE,1,test,P,100,3,656,591,R,0,NONE,0,1,157333,950
GRE,1,test,P,101,2,856,391,P,1,<rshift>,1,1,158332,379
GRE,1,test,P,102,2,856,391,P,1,<rshift>,1,1,159332,371
GRE,1,test,P,103,3,656,591,P,1,<rshift>,1,1,160332,559
GRE,1,test,P,104,1,656,391,P,1,<rshift>,1,1,161332,452
GRE,1,test,P,105,4,856,591,P,1,<rshift>,1,1,162332,415
GRE,1,test,P,106,1,656,391,P,1,<rshift>,1,1,163332,379
GRE,1,test,P,107,2,856,391,P,1,<rshift>,1,1,164332,365
GRE,1,test,P,108,3,656,591,R,0,<rshift>,1,0,165332,561
GRE,1,test,P,109,2,856,391,P,1,<rshift>,1,1,166332,385
GRE,1,test,P,110,3,656,591,P,1,<rshift>,1,1,167332,467
GRE,1,test,P,111,4,856,591,P,1,<rshift>,1,1,168332,454
GRE,1,test,P,112,2,856,391,P,1,<rshift>,1,1,169332,388
GRE,1,test,P,113,2,856,391,R,0,NONE,0,1,170332,950
GRE,1,test,P,114,2,856,391,P,1,<rshift>,1,1,171332,488
GRE,1,test,P,115,4,856,591,P,1,<rshift>,1,1,172332,429
GRE,1,test,P,116,2,856,391,P,1,<rshift>,1,1,173332,370
GRE,1,test,P,117,2,856,391,P,1,<rshift>,1,1,174332,337
GRE,1,test,P,118,2,856,391,P,1,<rshift>,1,1,175333,362
GRE,1,test,P,119,3,656,591,P,1,<rshift>,1,1,176332,599
GRE,1,test,P,120,3,656,591,P,1,<rshift>,1,1,177332,488
GRE,1,test,P,121,3,656,591,R,0,<rshift>,1,0,178333,334
GRE,1,test,P,122,3,656,591,P,1,<rshift>,1,1,179332,443
GRE,1,test,P,123,1,656,391,P,1,<rshift>,1,1,180332,483
GRE,1,test,P,124,3,656,591,P,1,<rshift>,1,1,181332,585
GRE,1,test,P,125,3,656,591,P,1,<rshift>,1,1,182332,358
GRE,1,test,P,126,2,856,391,P,1,<rshift>,1,1,183332,417
GRE,1,test,P,127,1,656,391,P,1,<rshift>,1,1,184332,413
GRE,1,test,P,128,1,656,391,P,1,<rshift>,1,1,185332,342
GRE,1,test,P,129,4,856,591,P,1,<rshift>,1,1,186332,493
GRE,1,test,P,130,4,856,591,P,1,<rshift>,1,1,187332,370
GRE,1,test,P,131,4,856,591,R,0,<rshift>,1,0,188332,342
GRE,1,test,P,132,4,856,591,P,1,<rshift>,1,1,189333,452
GRE,1,test,P,133,2,856,391,P,1,<rshift>,1,1,190332,411
GRE,1,test,P,134,3,656,591,P,1,<rshift>,1,1,191332,464
GRE,1,test,P,135,2,856,391,R,0,NONE,0,1,192332,950
GRE,1,test,P,136,2,856,391,P,1,<rshift>,1,1,193332,414
GRE,1,test,P,137,4,856,591,P,1,<rshift>,1,1,194332,447
GRE,1,test,P,138,4,856,591,P,1,<rshift>,1,1,195333,469
GRE,1,test,P,139,2,856,391,P,1,<rshift>,1,1,196332,608
GRE,1,test,P,140,2,856,391,R,0,NONE,0,1,197332,950
GRE,1,test,P,141,4,856,591,P,1,<rshift>,1,1,198332,452
GRE,1,test,P,142,2,856,391,P,1,<rshift>,1,1,199332,486
GRE,1,test,P,143,4,856,591,P,1,<rshift>,1,1,200332,541
GRE,1,test,P,144,3,656,591,R,0,NONE,0,1,201332,950
GRE,1,test,P,145,3,656,591,P,1,<rshift>,1,1,202332,436
GRE,1,test,P,146,1,656,391,P,1,<rshift>,1,1,203332,458
GRE,1,test,P,147,2,856,391,P,1,<rshift>,1,1,204333,350
GRE,1,test,P,148,1,656,391,P,1,<rshift>,1,1,205332,348
GRE,1,test,P,149,1,656,391,R,0,NONE,0,1,206332,950
GRE,1,test,P,150,3,656,591,R,0,<rshift>,1,0,207332,358
GRE,1,test,P,151,3,656,591,P,1,<rshift>,1,1,208333,578
GRE,1,test,P,152,4,856,591,P,1,<rshift>,1,1,209332,453
GRE,1,test,P,153,1,656,391,P,1,<rshift>,1,1,210332,520
GRE,1,test,P,154,4,856,591,R,0,<rshift>,1,0,211332,349
GRE,1,test,P,155,4,856,591,P,1,<rshift>,1,1,212332,426
GRE,1,test,P,156,4,856,591,P,1,<rshift>,1,1,213332,447
GRE,1,test,P,157,2,856,391,P,1,<rshift>,1,1,214332,566
GRE,1,test,P,158,4,856,591,P,1,<rshift>,1,1,215332,405
GRE,1,test,P,159,1,656,391,P,1,<rshift>,1,1,216332,461
GRE,1,test,P,160,1,656,391,R,0,NONE,0,1,217332,950
GRE,1,test,P,161,3,656,591,P,1,<rshift>,1,1,218332,402
GRE,1,test,P,162,1,656,391,P,1,<rshift>,1,1,219333,389
GRE,1,test,P,163,2,856,391,P,1,<rshift>,1,1,220333,494
GRE,1,test,P,164,2,856,391,R,0,NONE,0,1,221332,950
GRE,1,test,P,165,2,856,391,P,1,<rshift>,1,1,222332,619
GRE,1,test,P,166,4,856,591,P,1,<rshift>,1,1,223332,432
GRE,1,test,P,167,4,856,591,P,1,<rshift>,1,1,224332,354
GRE,1,test,P,168,3,656,591,P,1,<rshift>,1,1,225332,388
GRE,1,test,P,169,1,656,391,P,1,<rshift>,1,1,226332,309
GRE,1,test,P,170,4,856,591,P,1,<rshift>,1,1,227332,323
GRE,1,test,P,171,3,656,591,P,1,<rshift>,1,1,228332,493
GRE,1,test,P,172,3,656,591,P,1,<rshift>,1,1,229333,362
GRE,1,test,P,173,3,656,591,R,0,NONE,0,1,230332,950
GRE,1,test,P,174,4,856,591,R,0,<rshift>,1,0,231332,332
GRE,1,test,P,175,1,656,391,P,1,<rshift>,1,1,232332,391
GRE,1,test,P,176,2,856,391,P,1,<rshift>,1,1,233332,317
GRE,1,test,P,177,2,856,391,P,1,<rshift>,1,1,234332,351
GRE,1,test,P,178,4,856,591,R,0,<rshift>,1,0,235332,376
GRE,1,test,P,179,2,856,391,P,1,<rshift>,1,1,236332,397
GRE,1,test,P,180,4,856,591,P,1,<rshift>,1,1,237333,520
GRE,1,test,P,181,3,656,591,P,1,<rshift>,1,1,238332,422
GRE,1,test,P,182,1,656,391,P,1,<rshift>,1,1,239332,358
GRE,1,test,P,183,3,656,591,P,1,<rshift>,1,1,240333,431
GRE,1,test,P,184,1,656,391,P,1,<rshift>,1,1,241332,455
GRE,1,test,P,185,2,856,391,R,0,<rshift>,1,0,242332,346
GRE,1,test,P,186,3,656,591,P,1,<rshift>,1,1,243332,429
GRE,1,test,P,187,4,856,591,P,1,<rshift>,1,1,244332,350
GRE,1,test,P,188,3,656,591,P,1,<rshift>,1,1,245333,451
GRE,1,test,P,189,4,856,591,P,1,<rshift>,1,1,246332,478
GRE,1,test,P,190,3,656,591,P,1,<rshift>,1,1,247332,496
GRE,1,test,P,191,1,656,391,P,1,<rshift>,1,1,248332,430
GRE,1,test,P,192,2,856,391,P,1,<rshift>,1,1,249332,381
GRE,1,test,P,193,2,856,391,P,1,<rshift>,1,1,250332,483
GRE,1,test,P,194,2,856,391,P,1,<rshift>,1,1,251332,426
GRE,1,test,P,195,4,856,591,P,1,<rshift>,1,1,252332,473
GRE,1,test,P,196,2,856,391,R,0,NONE,0,1,253333,950
GRE,1,test,P,197,1,656,391,P,1,<rshift>,1,1,254333,385
GRE,1,test,P,198,2,856,391,P,1,<rshift>,1,1,255333,520
GRE,1,test,P,199,3,656,591,P,1,<rshift>,1,1,256333,422
GRE,1,test,P,200,2,856,391,R,0,NONE,0,1,257333,950
GRE,1,test,P,201,3,656,591,P,1,<rshift>,1,1,258332,430
GRE,1,test,P,202,2,856,391,P,1,<rshift>,1,1,259333,389
GRE,1,test,P,203,3,656,591,R,0,NONE,0,1,260332,950
GRE,1,test,P,204,3,656,591,P,1,<rshift>,1,1,261332,521
GRE,1,test,P,205,4,856,591,P,1,<rshift>,1,1,262332,402
GRE,1,test,P,206,3,656,591,P,1,<rshift>,1,1,263332,421
GRE,1,test,P,207,2,856,391,P,1,<rshift>,1,1,264332,398
GRE,1,test,P,208,1,656,391,R,0,NONE,0,1,265333,950
GRE,1,test,P,209,2,856,391,P,1,<rshift>,1,1,266332,460
GRE,1,test,P,210,3,656,591,P,1,<rshift>,1,1,267332,520
GRE,1,test,P,211,2,856,391,R,0,<rshift>,1,0,268333,452
GRE,1,test,P,212,1,656,391,P,1,<rshift>,1,1,269332,562
GRE,1,test,P,213,2,856,391,P,1,<rshift>,1,1,270332,520
GRE,1,test,P,214,3,656,591,P,1,NONE,0,0,271332,951
GRE,1,test,P,215,2,856,391,P,1,<rshift>,1,1,272332,361
GRE,1,test,P,216,4,856,591,P,1,<rshift>,1,1,273332,756
GRE,1,test,P,217,1,656,391,P,1,<rshift>,1,1,274332,484
GRE,1,test,P,218,3,656,591,P,1,<rshift>,1,1,275332,495
GRE,1,test,P,219,3,656,591,P,1,<rshift>,1,1,276333,446
GRE,1,test,P,220,4,856,591,P,1,<rshift>,1,1,277332,357
GRE,1,test,P,221,2,856,391,R,0,<rshift>,1,0,278332,381
GRE,1,test,P,222,2,856,391,P,1,<rshift>,1,1,279332,449
GRE,1,test,P,223,3,656,591,P,1,<rshift>,1,1,280332,415
GRE,1,test,P,224,2,856,391,P,1,<rshift>,1,1,281334,381
GRE,1,test,P,225,1,656,391,R,0,NONE,0,1,282332,950
GRE,1,test,P,226,3,656,591,P,1,<rshift>,1,1,283332,345
GRE,1,test,P,227,1,656,391,P,1,<rshift>,1,1,284332,415
GRE,1,test,P,228,3,656,591,P,1,<rshift>,1,1,285332,470
GRE,1,test,P,229,1,656,391,R,0,NONE,0,1,286333,950
GRE,1,test,P,230,3,656,591,P,1,<rshift>,1,1,287332,442
GRE,1,test,P,231,4,856,591,P,1,<rshift>,1,1,288333,341
GRE,1,test,P,232,3,656,591,P,1,<rshift>,1,1,289333,374
GRE,1,test,P,233,4,856,591,P,1,<rshift>,1,1,290333,315
GRE,1,test,P,234,1,656,391,P,1,<rshift>,1,1,291332,307
GRE,1,test,P,235,4,856,591,R,0,NONE,0,1,292332,950
GRE,1,test,P,236,2,856,391,P,1,<rshift>,1,1,293332,339
GRE,1,test,P,237,4,856,591,P,1,<rshift>,1,1,294332,423
GRE,1,test,P,238,4,856,591,P,1,<rshift>,1,1,295332,428
GRE,1,test,P,239,1,656,391,P,1,<rshift>,1,1,296332,372
GRE,1,test,P,240,3,656,591,R,0,NONE,0,1,297332,950
GRE,1,test,P,241,4,856,591,P,1,<rshift>,1,1,298332,349
GRE,1,test,P,242,2,856,391,R,0,NONE,0,1,299332,950
GRE,1,test,P,243,1,656,391,R,0,NONE,0,1,300332,950
GRE,1,test,P,244,4,856,591,P,1,<rshift>,1,1,301332,441
GRE,1,test,P,245,2,856,391,R,0,NONE,0,1,302332,950
GRE,1,test,P,246,3,656,591,P,1,<rshift>,1,1,303332,422
GRE,1,test,P,247,1,656,391,P,1,<rshift>,1,1,304332,431
GRE,1,test,P,248,4,856,591,R,0,NONE,0,1,305332,950
GRE,1,test,P,249,2,856,391,P,1,<rshift>,1,1,306332,386
GRE,1,test,P,250,4,856,591,P,1,<rshift>,1,1,307332,492
GRE,1,test,P,251,4,856,591,P,1,<rshift>,1,1,308333,520
GRE,1,test,P,252,4,856,591,R,0,NONE,0,1,309332,950
GRE,1,test,P,253,3,656,591,P,1,<rshift>,1,1,310332,482
GRE,1,test,P,254,3,656,591,P,1,<rshift>,1,1,311332,491
GRE,1,test,P,255,3,656,591,P,1,<rshift>,1,1,312333,542
GRE,1,test,P,256,2,856,391,P,1,<rshift>,1,1,313332,567
GRE,1,test,P,257,2,856,391,R,0,NONE,0,1,314332,951
GRE,1,test,P,258,2,856,391,P,1,<rshift>,1,1,315332,449
GRE,1,test,P,259,2,856,391,P,1,<rshift>,1,1,316332,520
GRE,1,test,P,260,4,856,591,P,1,<rshift>,1,1,317332,536
GRE,1,test,P,261,2,856,391,P,1,<rshift>,1,1,318332,440
GRE,1,test,P,262,1,656,391,P,1,<rshift>,1,1,319333,442
GRE,1,test,P,263,4,856,591,P,1,<rshift>,1,1,320332,379
GRE,1,test,P,264,1,656,391,R,0,<rshift>,1,0,321332,364
GRE,1,test,P,265,3,656,591,R,0,NONE,0,1,322332,950
GRE,1,test,P,266,4,856,591,R,0,<rshift>,1,0,323332,538
GRE,1,test,P,267,2,856,391,P,1,<rshift>,1,1,324332,429
GRE,1,test,P,268,2,856,391,P,1,<rshift>,1,1,325332,425
GRE,1,test,P,269,4,856,591,P,1,<rshift>,1,1,326332,540
GRE,1,test,P,270,4,856,591,P,1,<rshift>,1,1,327332,457
GRE,1,test,P,271,1,656,391,P,1,<rshift>,1,1,328333,478
GRE,1,test,P,272,4,856,591,P,1,<rshift>,1,1,329332,429
GRE,1,test,P,273,2,856,391,P,1,<rshift>,1,1,330332,358
GRE,1,test,P,274,4,856,591,P,1,<rshift>,1,1,331332,404
GRE,1,test,P,275,2,856,391,P,1,<rshift>,1,1,332332,402
GRE,1,test,P,276,2,856,391,P,1,<rshift>,1,1,333332,520
GRE,1,test,P,277,1,656,391,P,1,<rshift>,1,1,334332,520
GRE,1,test,P,278,4,856,591,R,0,NONE,0,1,335332,950
GRE,1,test,P,279,4,856,591,P,1,<rshift>,1,1,336332,520
GRE,1,test,P,280,3,656,591,P,1,<rshift>,1,1,337332,484
GRE,1,test,P,281,2,856,391,R,0,<rshift>,1,0,338334,347
GRE,1,test,P,282,4,856,591,P,1,<rshift>,1,1,339332,521
GRE,1,test,P,283,1,656,391,R,0,NONE,0,1,340333,950
GRE,1,test,P,284,3,656,591,R,0,NONE,0,1,341332,950
GRE,1,test,P,285,4,856,591,P,1,<rshift>,1,1,342332,456
GRE,1,test,P,286,2,856,391,R,0,NONE,0,1,343333,950
GRE,1,test,P,287,4,856,591,P,1,<rshift>,1,1,344332,693
GRE,1,test,P,288,1,656,391,P,1,<rshift>,1,1,345332,560
GRE,1,test,P,289,3,656,591,R,0,NONE,0,1,346332,950
GRE,1,test,P,290,4,856,591,P,1,<rshift>,1,1,347332,374
GRE,1,test,P,291,3,656,591,P,1,<rshift>,1,1,348332,545
GRE,1,test,P,292,2,856,391,R,0,NONE,0,1,349332,950
GRE,1,test,P,293,1,656,391,P,1,<rshift>,1,1,350332,441
GRE,1,test,P,294,1,656,391,R,0,<rshift>,1,0,351332,662
GRE,1,test,P,295,1,656,391,P,1,<rshift>,1,1,352332,444
GRE,1,test,P,296,1,656,391,P,1,<rshift>,1,1,353332,381
GRE,1,test,P,297,4,856,591,P,1,<rshift>,1,1,354332,490
GRE,1,test,P,298,3,656,591,R,0,NONE,0,1,355332,950
GRE,1,test,P,299,4,856,591,P,1,<rshift>,1,1,356332,340
GRE,1,test,P,300,2,856,391,P,1,<rshift>,1,1,357332,520
GRE,2,practice,R,1,4,856,591,R,1,NONE,0,0,378324,951
GRE,2,practice,R,2,1,656,391,R,1,<rshift>,1,1,380338,432
GRE,2,practice,R,3,1,656,391,R,1,NONE,0,0,380811,950
GRE,2,practice,R,4,2,856,391,R,1,<rshift>,1,1,382822,416
GRE,2,practice,R,5,4,856,591,R,1,<rshift>,1,1,383279,601
GRE,2,practice,R,6,2,856,391,R,1,<rshift>,1,1,383900,459
GRE,2,practice,R,7,3,656,591,R,1,<rshift>,1,1,384400,529
GRE,2,practice,R,8,3,656,591,P,0,<rshift>,1,0,385324,469
GRE,2,practice,R,9,3,656,591,R,1,<rshift>,1,1,386875,685
GRE,2,practice,R,10,2,856,391,P,0,<rshift>,1,0,387581,384
GRE,3,test,R,1,2,856,391,R,1,<rshift>,1,1,392797,521
GRE,3,test,R,2,2,856,391,R,1,<rshift>,1,1,393797,391
GRE,3,test,R,3,4,856,591,R,1,<rshift>,1,1,394796,443
GRE,3,test,R,4,3,656,591,R,1,<rshift>,1,1,395796,521
GRE,3,test,R,5,4,856,591,R,1,<rshift>,1,1,396797,457
GRE,3,test,R,6,2,856,391,R,1,<rshift>,1,1,397796,355
GRE,3,test,R,7,3,656,591,R,1,<rshift>,1,1,398797,400
GRE,3,test,R,8,4,856,591,R,1,<rshift>,1,1,399797,389
GRE,3,test,R,9,4,856,591,R,1,<rshift>,1,1,400797,374
GRE,3,test,R,10,4,856,591,R,1,<rshift>,1,1,401797,322
GRE,3,test,R,11,1,656,391,R,1,<rshift>,1,1,402796,437
GRE,3,test,R,12,1,656,391,R,1,<rshift>,1,1,403797,521
GRE,3,test,R,13,1,656,391,R,1,<rshift>,1,1,404797,520
GRE,3,test,R,14,2,856,391,R,1,<rshift>,1,1,405797,421
GRE,3,test,R,15,4,856,591,R,1,<rshift>,1,1,406796,344
GRE,3,test,R,16,3,656,591,R,1,<rshift>,1,1,407796,355
GRE,3,test,R,17,1,656,391,R,1,<rshift>,1,1,408796,345
GRE,3,test,R,18,2,856,391,P,0,<rshift>,1,0,409796,400
GRE,3,test,R,19,1,656,391,R,1,<rshift>,1,1,410796,417
GRE,3,test,R,20,2,856,391,R,1,<rshift>,1,1,411796,480
GRE,3,test,R,21,2,856,391,P,0,NONE,0,1,412796,950
GRE,3,test,R,22,1,656,391,R,1,<rshift>,1,1,413796,460
GRE,3,test,R,23,1,656,391,R,1,<rshift>,1,1,414796,520
GRE,3,test,R,24,1,656,391,P,0,NONE,0,1,415796,950
GRE,3,test,R,25,3,656,591,R,1,<rshift>,1,1,416796,415
GRE,3,test,R,26,4,856,591,R,1,<rshift>,1,1,417796,384
GRE,3,test,R,27,3,656,591,R,1,<rshift>,1,1,418796,520
GRE,3,test,R,28,2,856,391,R,1,<rshift>,1,1,419796,345
GRE,3,test,R,29,2,856,391,R,1,<rshift>,1,1,420796,520
GRE,3,test,R,30,3,656,591,R,1,<rshift>,1,1,421796,432
GRE,3,test,R,31,3,656,591,R,1,<rshift>,1,1,422797,625
GRE,3,test,R,32,1,656,391,P,0,NONE,0,1,423797,950
GRE,3,test,R,33,3,656,591,P,0,<rshift>,1,0,424796,528
GRE,3,test,R,34,3,656,591,R,1,<rshift>,1,1,425796,558
GRE,3,test,R,35,2,856,391,R,1,<rshift>,1,1,426796,561
GRE,3,test,R,36,4,856,591,R,1,<rshift>,1,1,427796,432
GRE,3,test,R,37,1,656,391,R,1,<rshift>,1,1,428796,325
GRE,3,test,R,38,2,856,391,R,1,<rshift>,1,1,429796,291
GRE,3,test,R,39,1,656,391,R,1,<rshift>,1,1,430797,385
GRE,3,test,R,40,4,856,591,R,1,<rshift>,1,1,431796,351
GRE,3,test,R,41,2,856,391,R,1,<rshift>,1,1,432796,388
GRE,3,test,R,42,1,656,391,R,1,<rshift>,1,1,433796,482
GRE,3,test,R,43,3,656,591,R,1,<rshift>,1,1,434796,384
GRE,3,test,R,44,2,856,391,P,0,<rshift>,1,0,435797,280
GRE,3,test,R,45,3,656,591,R,1,<rshift>,1,1,436796,578
GRE,3,test,R,46,4,856,591,P,0,<rshift>,1,0,437796,436
GRE,3,test,R,47,3,656,591,R,1,<rshift>,1,1,438796,584
GRE,3,test,R,48,1,656,391,P,0,NONE,0,1,439797,950
GRE,3,test,R,49,3,656,591,R,1,<rshift>,1,1,440796,476
GRE,3,test,R,50,3,656,591,P,0,NONE,0,1,441797,950
GRE,3,test,R,51,4,856,591,P,0,<rshift>,1,0,442796,394
GRE,3,test,R,52,3,656,591,R,1,<rshift>,1,1,443797,484
GRE,3,test,R,53,4,856,591,R,1,<rshift>,1,1,444797,421
GRE,3,test,R,54,2,856,391,R,1,<rshift>,1,1,445796,436
GRE,3,test,R,55,3,656,591,R,1,<rshift>,1,1,446796,488
GRE,3,test,R,56,4,856,591,P,0,NONE,0,1,447796,950
GRE,3,test,R,57,3,656,591,R,1,<rshift>,1,1,448796,392
GRE,3,test,R,58,1,656,391,R,1,<rshift>,1,1,449796,525
GRE,3,test,R,59,2,856,391,P,0,NONE,0,1,450796,950
GRE,3,test,R,60,2,856,391,R,1,<rshift>,1,1,451796,482
GRE,3,test,R,61,4,856,591,P,0,NONE,0,1,452796,950
GRE,3,test,R,62,3,656,591,P,0,<rshift>,1,0,453796,467
GRE,3,test,R,63,4,856,591,R,1,<rshift>,1,1,454796,520
GRE,3,test,R,64,2,856,391,P,0,NONE,0,1,455796,950
GRE,3,test,R,65,3,656,591,R,1,<rshift>,1,1,456796,338
GRE,3,test,R,66,3,656,591,R,1,<rshift>,1,1,457796,411
GRE,3,test,R,67,2,856,391,R,1,<rshift>,1,1,458796,344
GRE,3,test,R,68,3,656,591,R,1,<rshift>,1,1,459797,419
GRE,3,test,R,69,1,656,391,R,1,<rshift>,1,1,460797,361
GRE,3,test,R,70,3,656,591,R,1,<rshift>,1,1,461796,372
GRE,3,test,R,71,3,656,591,P,0,NONE,0,1,462797,950
GRE,3,test,R,72,3,656,591,R,1,<rshift>,1,1,463796,539
GRE,3,test,R,73,2,856,391,R,1,<rshift>,1,1,464797,406
GRE,3,test,R,74,4,856,591,R,1,<rshift>,1,1,465796,520
GRE,3,test,R,75,2,856,391,R,1,<rshift>,1,1,466797,377
GRE,3,test,R,76,3,656,591,R,1,<rshift>,1,1,467796,352
GRE,3,test,R,77,4,856,591,R,1,<rshift>,1,1,468796,342
GRE,3,test,R,78,4,856,591,R,1,<rshift>,1,1,469797,348
GRE,3,test,R,79,2,856,391,P,0,NONE,0,1,470796,950
GRE,3,test,R,80,4,856,591,R,1,<rshift>,1,1,471796,380
GRE,3,test,R,81,2,856,391,R,1,<rshift>,1,1,472796,462
GRE,3,test,R,82,1,656,391,R,1,<rshift>,1,1,473797,412
GRE,3,test,R,83,1,656,391,P,0,NONE,0,1,474796,950
GRE,3,test,R,84,2,856,391,R,1,<rshift>,1,1,475796,486
GRE,3,test,R,85,1,656,391,R,1,<rshift>,1,1,476796,351
GRE,3,test,R,86,2,856,391,P,0,NONE,0,1,477796,950
GRE,3,test,R,87,3,656,591,R,1,<rshift>,1,1,478796,398
GRE,3,test,R,88,2,856,391,P,0,NONE,0,1,479797,950
GRE,3,test,R,89,3,656,591,R,1,<rshift>,1,1,480796,380
GRE,3,test,R,90,2,856,391,P,0,NONE,0,1,481796,950
GRE,3,test,R,91,2,856,391,R,1,<rshift>,1,1,482796,416
GRE,3,test,R,92,4,856,591,R,1,<rshift>,1,1,483796,448
GRE,3,test,R,93,2,856,391,P,0,NONE,0,1,484797,950
GRE,3,test,R,94,1,656,391,R,1,<rshift>,1,1,485796,393
GRE,3,test,R,95,2,856,391,R,1,<rshift>,1,1,486796,360
GRE,3,test,R,96,1,656,391,P,0,NONE,0,1,487796,950
GRE,3,test,R,97,1,656,391,R,1,<rshift>,1,1,488796,473
GRE,3,test,R,98,2,856,391,R,1,<rshift>,1,1,489796,520
GRE,3,test,R,99,4,856,591,R,1,<rshift>,1,1,490796,377
GRE,3,test,R,100,2,856,391,R,1,<rshift>,1,1,491797,351
GRE,3,test,R,101,3,656,591,R,1,<rshift>,1,1,492797,322
GRE,3,test,R,102,1,656,391,R,1,<rshift>,1,1,493797,336
GRE,3,test,R,103,4,856,591,R,1,<rshift>,1,1,494797,295
GRE,3,test,R,104,3,656,591,R,1,<rshift>,1,1,495796,379
GRE,3,test,R,105,1,656,391,R,1,<rshift>,1,1,496797,325
GRE,3,test,R,106,2,856,391,R,1,<rshift>,1,1,497796,315
GRE,3,test,R,107,1,656,391,R,1,<rshift>,1,1,498797,382
GRE,3,test,R,108,2,856,391,R,1,<rshift>,1,1,499796,315
GRE,3,test,R,109,3,656,591,R,1,<rshift>,1,1,500797,456
GRE,3,test,R,110,4,856,591,R,1,<rshift>,1,1,501797,331
GRE,3,test,R,111,1,656,391,P,0,<rshift>,1,0,502796,313
GRE,3,test,R,112,1,656,391,R,1,<rshift>,1,1,503797,456
GRE,3,test,R,113,4,856,591,R,1,<rshift>,1,1,504796,439
GRE,3,test,R,114,1,656,391,P,0,NONE,0,1,505797,950
GRE,3,test,R,115,1,656,391,R,1,<rshift>,1,1,506796,470
GRE,3,test,R,116,3,656,591,R,1,<rshift>,1,1,507796,458
GRE,3,test,R,117,1,656,391,R,1,<rshift>,1,1,508796,559
GRE,3,test,R,118,2,856,391,P,0,NONE,0,1,509797,950
GRE,3,test,R,119,1,656,391,R,1,<rshift>,1,1,510796,402
GRE,3,test,R,120,1,656,391,P,0,NONE,0,1,511797,950
GRE,3,test,R,121,2,856,391,R,1,<rshift>,1,1,512796,313
GRE,3,test,R,122,4,856,591,R,1,<rshift>,1,1,513796,384
GRE,3,test,R,123,4,856,591,R,1,<rshift>,1,1,514796,366
GRE,3,test,R,124,4,856,591,R,1,<rshift>,1,1,515796,380
GRE,3,test,R,125,3,656,591,R,1,<rshift>,1,1,516796,380
GRE,3,test,R,126,2,856,391,R,1,<rshift>,1,1,517797,310
GRE,3,test,R,127,3,656,591,P,0,<rshift>,1,0,518796,377
GRE,3,test,R,128,1,656,391,P,0,NONE,0,1,519797,950
GRE,3,test,R,129,2,856,391,R,1,<rshift>,1,1,520796,319
GRE,3,test,R,130,2,856,391,R,1,<rshift>,1,1,521796,371
GRE,3,test,R,131,2,856,391,R,1,<rshift>,1,1,522796,421
GRE,3,test,R,132,3,656,591,R,1,<rshift>,1,1,523796,485
GRE,3,test,R,133,2,856,391,R,1,<rshift>,1,1,524796,582
GRE,3,test,R,134,2,856,391,R,1,<rshift>,1,1,525797,556
GRE,3,test,R,135,2,856,391,P,0,NONE,0,1,526797,950
GRE,3,test,R,136,4,856,591,P,0,NONE,0,1,527796,950
GRE,3,test,R,137,1,656,391,P,0,NONE,0,1,528796,950
GRE,3,test,R,138,3,656,591,R,1,<rshift>,1,1,529796,520
GRE,3,test,R,139,1,656,391,R,1,NONE,0,0,530796,950
GRE,3,test,R,140,3,656,591,R,1,<rshift>,1,1,531796,454
GRE,3,test,R,141,2,856,391,R,1,<rshift>,1,1,532796,304
GRE,3,test,R,142,1,656,391,R,1,<rshift>,1,1,533797,359
GRE,3,test,R,143,3,656,591,R,1,<rshift>,1,1,534796,383
GRE,3,test,R,144,2,856,391,R,1,<rshift>,1,1,535796,357
GRE,3,test,R,145,4,856,591,R,1,<rshift>,1,1,536796,316
GRE,3,test,R,146,1,656,391,R,1,<rshift>,1,1,537796,319
GRE,3,test,R,147,4,856,591,R,1,<rshift>,1,1,538797,357
GRE,3,test,R,148,1,656,391,R,1,<rshift>,1,1,539796,378
GRE,3,test,R,149,1,656,391,R,1,<rshift>,1,1,540796,417
GRE,3,test,R,150,4,856,591,P,0,<rshift>,1,0,541797,314
GRE,3,test,R,151,2,856,391,R,1,<rshift>,1,1,542796,293
GRE,3,test,R,152,3,656,591,R,1,<rshift>,1,1,543797,325
GRE,3,test,R,153,1,656,391,R,1,<rshift>,1,1,544797,369
GRE,3,test,R,154,1,656,391,R,1,<rshift>,1,1,545796,558
GRE,3,test,R,155,1,656,391,P,0,NONE,0,1,546796,950
GRE,3,test,R,156,2,856,391,P,0,NONE,0,1,547796,950
GRE,3,test,R,157,1,656,391,R,1,<rshift>,1,1,548796,423
GRE,3,test,R,158,3,656,591,P,0,NONE,0,1,549796,950
GRE,3,test,R,159,2,856,391,R,1,<rshift>,1,1,550796,348
GRE,3,test,R,160,3,656,591,R,1,<rshift>,1,1,551796,475
GRE,3,test,R,161,3,656,591,R,1,<rshift>,1,1,552796,485
GRE,3,test,R,162,2,856,391,R,1,<rshift>,1,1,553797,395
GRE,3,test,R,163,2,856,391,R,1,<rshift>,1,1,554796,407
GRE,3,test,R,164,1,656,391,P,0,NONE,0,1,555796,951
GRE,3,test,R,165,2,856,391,P,0,NONE,0,1,556796,950
GRE,3,test,R,166,4,856,591,R,1,<rshift>,1,1,557796,374
GRE,3,test,R,167,4,856,591,R,1,<rshift>,1,1,558796,439
GRE,3,test,R,168,4,856,591,R,1,<rshift>,1,1,559797,435
GRE,3,test,R,169,1,656,391,R,1,<rshift>,1,1,560797,409
GRE,3,test,R,170,1,656,391,R,1,<rshift>,1,1,561797,393
GRE,3,test,R,171,2,856,391,R,1,<rshift>,1,1,562797,341
GRE,3,test,R,172,3,656,591,R,1,<rshift>,1,1,563797,335
GRE,3,test,R,173,4,856,591,R,1,<rshift>,1,1,564796,340
GRE,3,test,R,174,1,656,391,R,1,<rshift>,1,1,565796,366
GRE,3,test,R,175,1,656,391,R,1,<rshift>,1,1,566797,393
GRE,3,test,R,176,1,656,391,R,1,<rshift>,1,1,567797,418
GRE,3,test,R,177,2,856,391,R,1,<rshift>,1,1,568797,335
GRE,3,test,R,178,4,856,591,R,1,<rshift>,1,1,569797,271
GRE,3,test,R,179,4,856,591,P,0,NONE,0,1,570796,951
GRE,3,test,R,180,1,656,391,R,1,<rshift>,1,1,571796,350
GRE,3,test,R,181,2,856,391,R,1,<rshift>,1,1,572796,335
GRE,3,test,R,182,4,856,591,R,1,<rshift>,1,1,573797,316
GRE,3,test,R,183,3,656,591,R,1,<rshift>,1,1,574796,338
GRE,3,test,R,184,4,856,591,R,1,<rshift>,1,1,575796,378
GRE,3,test,R,185,4,856,591,R,1,<rshift>,1,1,576797,369
GRE,3,test,R,186,1,656,391,R,1,<rshift>,1,1,577797,542
GRE,3,test,R,187,2,856,391,R,1,<rshift>,1,1,578796,334
GRE,3,test,R,188,3,656,591,R,1,<rshift>,1,1,579797,347
GRE,3,test,R,189,4,856,591,R,1,<rshift>,1,1,580796,269
GRE,3,test,R,190,4,856,591,R,1,<rshift>,1,1,581797,342
GRE,3,test,R,191,1,656,391,R,1,<rshift>,1,1,582796,316
GRE,3,test,R,192,2,856,391,R,1,<rshift>,1,1,583796,316
GRE,3,test,R,193,2,856,391,R,1,<rshift>,1,1,584796,332
GRE,3,test,R,194,3,656,591,R,1,<rshift>,1,1,585796,301
GRE,3,test,R,195,1,656,391,P,0,<rshift>,1,0,586797,349
GRE,3,test,R,196,2,856,391,R,1,<rshift>,1,1,587796,402
GRE,3,test,R,197,4,856,591,P,0,<rshift>,1,0,588798,325
GRE,3,test,R,198,1,656,391,R,1,<rshift>,1,1,589796,489
GRE,3,test,R,199,2,856,391,R,1,<rshift>,1,1,590796,449
GRE,3,test,R,200,1,656,391,R,1,<rshift>,1,1,591797,449
GRE,3,test,R,201,1,656,391,R,1,<rshift>,1,1,592797,448
GRE,3,test,R,202,3,656,591,P,0,NONE,0,1,593797,950
GRE,3,test,R,203,4,856,591,P,0,<rshift>,1,0,594796,416
GRE,3,test,R,204,2,856,391,R,1,<rshift>,1,1,595796,492
GRE,3,test,R,205,3,656,591,P,0,NONE,0,1,596796,951
GRE,3,test,R,206,4,856,591,R,1,<rshift>,1,1,597796,480
GRE,3,test,R,207,3,656,591,R,1,<rshift>,1,1,598796,520
GRE,3,test,R,208,2,856,391,R,1,<rshift>,1,1,599797,456
GRE,3,test,R,209,3,656,591,R,1,<rshift>,1,1,600796,456
GRE,3,test,R,210,4,856,591,R,1,<rshift>,1,1,601796,472
GRE,3,test,R,211,4,856,591,R,1,<rshift>,1,1,602796,520
GRE,3,test,R,212,3,656,591,P,0,NONE,0,1,603797,950
GRE,3,test,R,213,1,656,391,R,1,<rshift>,1,1,604796,520
GRE,3,test,R,214,4,856,591,P,0,NONE,0,1,605796,951
GRE,3,test,R,215,2,856,391,R,1,<rshift>,1,1,606796,468
GRE,3,test,R,216,1,656,391,R,1,<rshift>,1,1,607796,415
GRE,3,test,R,217,4,856,591,R,1,<rshift>,1,1,608796,338
GRE,3,test,R,218,2,856,391,R,1,<rshift>,1,1,609796,351
GRE,3,test,R,219,2,856,391,R,1,<rshift>,1,1,610796,489
GRE,3,test,R,220,1,656,391,R,1,<rshift>,1,1,611797,393
GRE,3,test,R,221,1,656,391,R,1,<rshift>,1,1,612796,387
GRE,3,test,R,222,3,656,591,R,1,<rshift>,1,1,613796,379
GRE,3,test,R,223,3,656,591,R,1,<rshift>,1,1,614796,520
GRE,3,test,R,224,2,856,391,R,1,<rshift>,1,1,615796,336
GRE,3,test,R,225,4,856,591,P,0,<rshift>,1,0,616796,390
GRE,3,test,R,226,2,856,391,R,1,<rshift>,1,1,617796,473
GRE,3,test,R,227,3,656,591,R,1,<rshift>,1,1,618796,440
GRE,3,test,R,228,3,656,591,R,1,<rshift>,1,1,619796,476
GRE,3,test,R,229,3,656,591,R,1,<rshift>,1,1,620797,618
GRE,3,test,R,230,4,856,591,P,0,NONE,0,1,621797,950
GRE,3,test,R,231,1,656,391,R,1,<rshift>,1,1,622796,412
GRE,3,test,R,232,1,656,391,P,0,NONE,0,1,623796,950
GRE,3,test,R,233,1,656,391,R,1,<rshift>,1,1,624796,428
GRE,3,test,R,234,4,856,591,R,1,<rshift>,1,1,625797,704
GRE,3,test,R,235,3,656,591,P,0,NONE,0,1,626796,950
GRE,3,test,R,236,3,656,591,R,1,<rshift>,1,1,627796,564
GRE,3,test,R,237,1,656,391,R,1,<rshift>,1,1,628797,494
GRE,3,test,R,238,3,656,591,R,1,<rshift>,1,1,629797,489
GRE,3,test,R,239,3,656,591,R,1,<rshift>,1,1,630797,455
GRE,3,test,R,240,3,656,591,R,1,<rshift>,1,1,631797,375
GRE,3,test,R,241,2,856,391,R,1,<rshift>,1,1,632798,471
GRE,3,test,R,242,3,656,591,R,1,<rshift>,1,1,633797,359
GRE,3,test,R,243,1,656,391,R,1,<rshift>,1,1,634797,345
GRE,3,test,R,244,4,856,591,R,1,<rshift>,1,1,635797,382
GRE,3,test,R,245,3,656,591,R,1,<rshift>,1,1,636797,335
GRE,3,test,R,246,1,656,391,R,1,<rshift>,1,1,637797,397
GRE,3,test,R,247,3,656,591,P,0,<rshift>,1,0,638796,402
GRE,3,test,R,248,3,656,591,R,1,<rshift>,1,1,639796,494
GRE,3,test,R,249,2,856,391,R,1,<rshift>,1,1,640797,350
GRE,3,test,R,250,4,856,591,R,1,<rshift>,1,1,641796,458
GRE,3,test,R,251,3,656,591,R,1,<rshift>,1,1,642796,351
GRE,3,test,R,252,2,856,391,R,1,<rshift>,1,1,643797,313
GRE,3,test,R,253,4,856,591,P,0,NONE,0,1,644796,950
GRE,3,test,R,254,4,856,591,P,0,NONE,0,1,645796,950
GRE,3,test,R,255,4,856,591,R,1,<rshift>,1,1,646796,458
GRE,3,test,R,256,3,656,591,R,1,<rshift>,1,1,647796,436
GRE,3,test,R,257,3,656,591,R,1,<rshift>,1,1,648797,402
GRE,3,test,R,258,3,656,591,P,0,NONE,0,1,649797,950
GRE,3,test,R,259,1,656,391,P,0,NONE,0,1,650796,950
GRE,3,test,R,260,4,856,591,R,1,<rshift>,1,1,651796,449
GRE,3,test,R,261,3,656,591,R,1,<rshift>,1,1,652797,474
GRE,3,test,R,262,3,656,591,R,1,<rshift>,1,1,653797,427
GRE,3,test,R,263,3,656,591,R,1,<rshift>,1,1,654796,375
GRE,3,test,R,264,4,856,591,R,1,<rshift>,1,1,655796,389
GRE,3,test,R,265,4,856,591,R,1,<rshift>,1,1,656796,379
GRE,3,test,R,266,1,656,391,R,1,<rshift>,1,1,657796,415
GRE,3,test,R,267,2,856,391,R,1,<rshift>,1,1,658796,319
GRE,3,test,R,268,2,856,391,R,1,<rshift>,1,1,659797,490
GRE,3,test,R,269,2,856,391,R,1,<rshift>,1,1,660796,349
GRE,3,test,R,270,2,856,391,R,1,<rshift>,1,1,661796,350
GRE,3,test,R,271,2,856,391,R,1,<rshift>,1,1,662797,326
GRE,3,test,R,272,1,656,391,R,1,<rshift>,1,1,663796,435
GRE,3,test,R,273,2,856,391,R,1,<rshift>,1,1,664796,362
GRE,3,test,R,274,1,656,391,R,1,<rshift>,1,1,665796,392
GRE,3,test,R,275,3,656,591,R,1,<rshift>,1,1,666796,370
GRE,3,test,R,276,3,656,591,R,1,<rshift>,1,1,667797,427
GRE,3,test,R,277,3,656,591,R,1,<rshift>,1,1,668796,372
GRE,3,test,R,278,3,656,591,R,1,<rshift>,1,1,669797,438
GRE,3,test,R,279,4,856,591,R,1,<rshift>,1,1,670797,357
GRE,3,test,R,280,1,656,391,R,1,<rshift>,1,1,671797,432
GRE,3,test,R,281,4,856,591,R,1,<rshift>,1,1,672796,344
GRE,3,test,R,282,2,856,391,P,0,<rshift>,1,0,673797,365
GRE,3,test,R,283,3,656,591,R,1,<rshift>,1,1,674796,329
GRE,3,test,R,284,3,656,591,R,1,<rshift>,1,1,675797,521
GRE,3,test,R,285,1,656,391,R,1,<rshift>,1,1,676797,460
GRE,3,test,R,286,2,856,391,R,1,<rshift>,1,1,677796,372
GRE,3,test,R,287,3,656,591,R,1,<rshift>,1,1,678796,396
GRE,3,test,R,288,1,656,391,R,1,<rshift>,1,1,679797,368
GRE,3,test,R,289,1,656,391,P,0,NONE,0,1,680796,950
GRE,3,test,R,290,1,656,391,R,1,<rshift>,1,1,681796,520
GRE,3,test,R,291,2,856,391,R,1,<rshift>,1,1,682797,496
GRE,3,test,R,292,2,856,391,R,1,<rshift>,1,1,683797,468
GRE,3,test,R,293,1,656,391,P,0,NONE,0,1,684797,950
GRE,3,test,R,294,4,856,591,R,1,<rshift>,1,1,685796,555
GRE,3,test,R,295,2,856,391,R,1,NONE,0,0,686797,950
GRE,3,test,R,296,2,856,391,R,1,<rshift>,1,1,687796,475
GRE,3,test,R,297,3,656,591,R,1,<rshift>,1,1,688796,471
GRE,3,test,R,298,1,656,391,R,1,<rshift>,1,1,689798,415
GRE,3,test,R,299,2,856,391,P,0,NONE,0,1,690797,950
GRE,3,test,R,300,4,856,591,P,0,NONE,0,1,691796,950
