subnum,block,type,correctresponse,trial,choice,x,y,stim,present,response,responded,corr,starttime,rt
CONTROL_TS_14A,0,practice,P,1,3,540,460,P,1,<rshift>,1,1,7819,538
CONTROL_TS_14A,0,practice,P,2,2,740,260,P,1,<rshift>,1,1,8824,400
CONTROL_TS_14A,0,practice,P,3,1,540,260,P,1,<rshift>,1,1,9821,324
CONTROL_TS_14A,0,practice,P,4,2,740,260,P,1,<rshift>,1,1,10822,346
CONTROL_TS_14A,0,practice,P,5,4,740,460,P,1,<rshift>,1,1,11824,339
CONTROL_TS_14A,0,practice,P,6,2,740,260,R,0,<rshift>,1,0,12823,356
CONTROL_TS_14A,0,practice,P,7,3,540,460,P,1,<rshift>,1,1,14243,435
CONTROL_TS_14A,0,practice,P,8,1,540,260,P,1,<rshift>,1,1,14824,520
CONTROL_TS_14A,0,practice,P,9,2,740,260,R,0,NONE,0,1,15823,953
CONTROL_TS_14A,0,practice,P,10,3,540,460,P,1,<rshift>,1,1,16821,389
CONTROL_TS_14A,1,test,P,1,3,540,460,P,1,<rshift>,1,1,23016,522
CONTROL_TS_14A,1,test,P,2,1,540,260,R,0,<rshift>,1,0,24020,372
CONTROL_TS_14A,1,test,P,3,2,740,260,P,1,<rshift>,1,1,25019,376
CONTROL_TS_14A,1,test,P,4,4,740,460,P,1,<rshift>,1,1,26022,491
CONTROL_TS_14A,1,test,P,5,3,540,460,P,1,<rshift>,1,1,27021,417
CONTROL_TS_14A,1,test,P,6,1,540,260,P,1,<rshift>,1,1,28021,365
CONTROL_TS_14A,1,test,P,7,1,540,260,P,1,<rshift>,1,1,29025,348
CONTROL_TS_14A,1,test,P,8,4,740,460,R,0,NONE,0,1,30023,952
CONTROL_TS_14A,1,test,P,9,4,740,460,P,1,<rshift>,1,1,31021,400
CONTROL_TS_14A,1,test,P,10,3,540,460,P,1,<rshift>,1,1,32020,393
CONTROL_TS_14A,1,test,P,11,1,540,260,P,1,<rshift>,1,1,33024,306
CONTROL_TS_14A,1,test,P,12,3,540,460,P,1,<rshift>,1,1,34023,378
CONTROL_TS_14A,1,test,P,13,3,540,460,R,0,NONE,0,1,35024,951
CONTROL_TS_14A,1,test,P,14,1,540,260,R,0,<rshift>,1,0,36026,331
CONTROL_TS_14A,1,test,P,15,4,740,460,R,0,NONE,0,1,37027,953
CONTROL_TS_14A,1,test,P,16,4,740,460,R,0,NONE,0,1,38026,953
CONTROL_TS_14A,1,test,P,17,2,740,260,R,0,NONE,0,1,39018,952
CONTROL_TS_14A,1,test,P,18,3,540,460,P,1,<rshift>,1,1,40018,414
CONTROL_TS_14A,1,test,P,19,1,540,260,P,1,<rshift>,1,1,41020,408
CONTROL_TS_14A,1,test,P,20,4,740,460,P,1,<rshift>,1,1,42021,381
CONTROL_TS_14A,1,test,P,21,2,740,260,P,1,<rshift>,1,1,43026,324
CONTROL_TS_14A,1,test,P,22,2,740,260,R,0,<rshift>,1,0,44018,341
CONTROL_TS_14A,1,test,P,23,4,740,460,P,1,<rshift>,1,1,45024,547
CONTROL_TS_14A,1,test,P,24,2,740,260,P,1,<rshift>,1,1,46021,483
CONTROL_TS_14A,1,test,P,25,3,540,460,P,1,<rshift>,1,1,47022,434
CONTROL_TS_14A,1,test,P,26,1,540,260,P,1,<rshift>,1,1,48021,407
CONTROL_TS_14A,1,test,P,27,3,540,460,P,1,<rshift>,1,1,49019,481
CONTROL_TS_14A,1,test,P,28,3,540,460,P,1,<rshift>,1,1,50023,449
CONTROL_TS_14A,1,test,P,29,2,740,260,P,1,<rshift>,1,1,51028,473
CONTROL_TS_14A,1,test,P,30,1,540,260,P,1,<rshift>,1,1,52025,499
CONTROL_TS_14A,1,test,P,31,1,540,260,P,1,<rshift>,1,1,53025,523
CONTROL_TS_14A,1,test,P,32,4,740,460,P,1,<rshift>,1,1,54023,312
CONTROL_TS_14A,1,test,P,33,3,540,460,P,1,<rshift>,1,1,55024,322
CONTROL_TS_14A,1,test,P,34,3,540,460,P,1,<rshift>,1,1,56022,373
CONTROL_TS_14A,1,test,P,35,1,540,260,R,0,<rshift>,1,0,57022,359
CONTROL_TS_14A,1,test,P,36,4,740,460,P,1,<rshift>,1,1,58022,416
CONTROL_TS_14A,1,test,P,37,1,540,260,P,1,<rshift>,1,1,59021,531
CONTROL_TS_14A,1,test,P,38,3,540,460,P,1,<rshift>,1,1,60023,411
CONTROL_TS_14A,1,test,P,39,4,740,460,P,1,<rshift>,1,1,61024,420
CONTROL_TS_14A,1,test,P,40,1,540,260,R,0,NONE,0,1,62020,954
CONTROL_TS_14A,1,test,P,41,3,540,460,P,1,<rshift>,1,1,63025,334
CONTROL_TS_14A,1,test,P,42,1,540,260,P,1,<rshift>,1,1,64023,394
CONTROL_TS_14A,1,test,P,43,2,740,260,P,1,<rshift>,1,1,65020,378
CONTROL_TS_14A,1,test,P,44,3,540,460,P,1,<rshift>,1,1,66022,522
CONTROL_TS_14A,1,test,P,45,4,740,460,P,1,<rshift>,1,1,67022,349
CONTROL_TS_14A,1,test,P,46,3,540,460,P,1,<rshift>,1,1,68020,385
CONTROL_TS_14A,1,test,P,47,2,740,260,R,0,NONE,0,1,69021,951
CONTROL_TS_14A,1,test,P,48,3,540,460,P,1,<rshift>,1,1,70022,380
CONTROL_TS_14A,1,test,P,49,1,540,260,P,1,<rshift>,1,1,71021,442
CONTROL_TS_14A,1,test,P,50,3,540,460,P,1,<rshift>,1,1,72018,522
CONTROL_TS_14A,1,test,P,51,3,540,460,P,1,<rshift>,1,1,73027,379
CONTROL_TS_14A,1,test,P,52,4,740,460,P,1,<rshift>,1,1,74022,364
CONTROL_TS_14A,1,test,P,53,1,540,260,P,1,<rshift>,1,1,75025,496
CONTROL_TS_14A,1,test,P,54,2,740,260,P,1,<rshift>,1,1,76026,457
CONTROL_TS_14A,1,test,P,55,1,540,260,P,1,<rshift>,1,1,77023,613
CONTROL_TS_14A,1,test,P,56,3,540,460,P,1,<rshift>,1,1,78025,329
CONTROL_TS_14A,1,test,P,57,2,740,260,P,1,<rshift>,1,1,79021,317
CONTROL_TS_14A,1,test,P,58,1,540,260,P,1,<rshift>,1,1,80025,416
CONTROL_TS_14A,1,test,P,59,1,540,260,P,1,<rshift>,1,1,81024,344
CONTROL_TS_14A,1,test,P,60,4,740,460,P,1,<rshift>,1,1,82021,516
CONTROL_TS_14A,1,test,P,61,2,740,260,R,0,<rshift>,1,0,83021,320
CONTROL_TS_14A,1,test,P,62,2,740,260,P,1,<rshift>,1,1,84027,453
CONTROL_TS_14A,1,test,P,63,2,740,260,P,1,<rshift>,1,1,85022,408
CONTROL_TS_14A,1,test,P,64,2,740,260,P,1,<rshift>,1,1,86018,404
CONTROL_TS_14A,1,test,P,65,1,540,260,P,1,<rshift>,1,1,87025,438
CONTROL_TS_14A,1,test,P,66,2,740,260,R,0,NONE,0,1,88022,952
CONTROL_TS_14A,1,test,P,67,1,540,260,P,1,<rshift>,1,1,89022,387
CONTROL_TS_14A,1,test,P,68,3,540,460,P,1,<rshift>,1,1,90019,332
CONTROL_TS_14A,1,test,P,69,1,540,260,P,1,<rshift>,1,1,91025,340
CONTROL_TS_14A,1,test,P,70,2,740,260,P,1,<rshift>,1,1,92021,369
CONTROL_TS_14A,1,test,P,71,2,740,260,P,1,<rshift>,1,1,93025,336
CONTROL_TS_14A,1,test,P,72,2,740,260,P,1,<rshift>,1,1,94028,336
CONTROL_TS_14A,1,test,P,73,1,540,260,P,1,<rshift>,1,1,95023,335
CONTROL_TS_14A,1,test,P,74,2,740,260,R,0,NONE,0,1,96024,952
CONTROL_TS_14A,1,test,P,75,2,740,260,P,1,<rshift>,1,1,97020,537
CONTROL_TS_14A,1,test,P,76,4,740,460,P,1,<rshift>,1,1,98017,398
CONTROL_TS_14A,1,test,P,77,2,740,260,P,1,<rshift>,1,1,99023,381
CONTROL_TS_14A,1,test,P,78,2,740,260,P,1,<rshift>,1,1,100022,372
CONTROL_TS_14A,1,test,P,79,3,540,460,P,1,<rshift>,1,1,101021,334
CONTROL_TS_14A,1,test,P,80,4,740,460,P,1,<rshift>,1,1,102019,339
CONTROL_TS_14A,1,test,P,81,2,740,260,P,1,<rshift>,1,1,103021,391
CONTROL_TS_14A,1,test,P,82,3,540,460,R,0,<rshift>,1,0,104020,336
CONTROL_TS_14A,1,test,P,83,3,540,460,R,0,NONE,0,1,105023,953
CONTROL_TS_14A,1,test,P,84,4,740,460,P,1,<rshift>,1,1,106022,381
CONTROL_TS_14A,1,test,P,85,3,540,460,P,1,<rshift>,1,1,107023,526
CONTROL_TS_14A,1,test,P,86,4,740,460,P,1,<rshift>,1,1,108019,388
CONTROL_TS_14A,1,test,P,87,2,740,260,P,1,<rshift>,1,1,109021,279
CONTROL_TS_14A,1,test,P,88,1,540,260,P,1,<rshift>,1,1,110027,321
CONTROL_TS_14A,1,test,P,89,4,740,460,P,1,<rshift>,1,1,111024,281
CONTROL_TS_14A,1,test,P,90,1,540,260,P,1,<rshift>,1,1,112027,360
CONTROL_TS_14A,1,test,P,91,2,740,260,R,0,<rshift>,1,0,113023,288
CONTROL_TS_14A,1,test,P,92,3,540,460,R,0,<rshift>,1,0,114029,361
CONTROL_TS_14A,1,test,P,93,3,540,460,P,1,<rshift>,1,1,115026,433
CONTROL_TS_14A,1,test,P,94,3,540,460,P,1,<rshift>,1,1,116018,489
CONTROL_TS_14A,1,test,P,95,3,540,460,P,1,<rshift>,1,1,117024,458
CONTROL_TS_14A,1,test,P,96,1,540,260,P,1,<rshift>,1,1,118024,442
CONTROL_TS_14A,1,test,P,97,3,540,460,P,1,<rshift>,1,1,119023,367
CONTROL_TS_14A,1,test,P,98,2,740,260,R,0,NONE,0,1,120027,953
CONTROL_TS_14A,1,test,P,99,2,740,260,R,0,NONE,0,1,121020,952
CONTROL_TS_14A,1,test,P,100,1,540,260,P,1,<rshift>,1,1,122023,392
CONTROL_TS_14A,1,test,P,101,2,740,260,R,0,NONE,0,1,123028,953
CONTROL_TS_14A,1,test,P,102,3,540,460,P,1,<rshift>,1,1,124024,359
CONTROL_TS_14A,1,test,P,103,2,740,260,P,1,<rshift>,1,1,125025,525
CONTROL_TS_14A,1,test,P,104,3,540,460,R,0,NONE,0,1,126016,953
CONTROL_TS_14A,1,test,P,105,1,540,260,P,1,<rshift>,1,1,127024,348
CONTROL_TS_14A,1,test,P,106,3,540,460,P,1,<rshift>,1,1,128024,365
CONTROL_TS_14A,1,test,P,107,2,740,260,P,1,<rshift>,1,1,129022,471
CONTROL_TS_14A,1,test,P,108,2,740,260,P,1,<rshift>,1,1,130023,410
CONTROL_TS_14A,1,test,P,109,3,540,460,P,1,<rshift>,1,1,131021,356
CONTROL_TS_14A,1,test,P,110,4,740,460,R,0,NONE,0,1,132022,953
CONTROL_TS_14A,1,test,P,111,2,740,260,R,0,NONE,0,1,133025,952
CONTROL_TS_14A,1,test,P,112,4,740,460,P,1,<rshift>,1,1,134022,393
CONTROL_TS_14A,1,test,P,113,4,740,460,P,1,<rshift>,1,1,135020,375
CONTROL_TS_14A,1,test,P,114,4,740,460,R,0,NONE,0,1,136026,953
CONTROL_TS_14A,1,test,P,115,4,740,460,P,1,<rshift>,1,1,137017,374
CONTROL_TS_14A,1,test,P,116,3,540,460,P,1,<rshift>,1,1,138022,365
CONTROL_TS_14A,1,test,P,117,3,540,460,P,1,<rshift>,1,1,139022,332
CONTROL_TS_14A,1,test,P,118,3,540,460,P,1,<rshift>,1,1,140022,298
CONTROL_TS_14A,1,test,P,119,4,740,460,P,1,<rshift>,1,1,141023,297
CONTROL_TS_14A,1,test,P,120,4,740,460,P,1,<rshift>,1,1,142025,350
CONTROL_TS_14A,1,test,P,121,2,740,260,P,1,<rshift>,1,1,143021,263
CONTROL_TS_14A,1,test,P,122,4,740,460,P,1,<rshift>,1,1,144017,285
CONTROL_TS_14A,1,test,P,123,3,540,460,R,0,<rshift>,1,0,145026,242
CONTROL_TS_14A,1,test,P,124,3,540,460,P,1,<rshift>,1,1,146024,350
CONTROL_TS_14A,1,test,P,125,3,540,460,P,1,<rshift>,1,1,147025,287
CONTROL_TS_14A,1,test,P,126,4,740,460,P,1,<rshift>,1,1,148025,230
CONTROL_TS_14A,1,test,P,127,1,540,260,P,1,<rshift>,1,1,149023,295
CONTROL_TS_14A,1,test,P,128,3,540,460,R,0,<rshift>,1,0,150021,300
CONTROL_TS_14A,1,test,P,129,2,740,260,P,1,<rshift>,1,1,151022,346
CONTROL_TS_14A,1,test,P,130,3,540,460,P,1,<rshift>,1,1,152030,316
CONTROL_TS_14A,1,test,P,131,1,540,260,P,1,<rshift>,1,1,153027,343
CONTROL_TS_14A,1,test,P,132,3,540,460,R,0,<rshift>,1,0,154023,346
CONTROL_TS_14A,1,test,P,133,2,740,260,P,1,<rshift>,1,1,155024,296
CONTROL_TS_14A,1,test,P,134,3,540,460,P,1,<rshift>,1,1,156018,497
CONTROL_TS_14A,1,test,P,135,1,540,260,P,1,<rshift>,1,1,157026,368
CONTROL_TS_14A,1,test,P,136,1,540,260,P,1,<rshift>,1,1,158020,378
CONTROL_TS_14A,1,test,P,137,1,540,260,P,1,<rshift>,1,1,159024,353
CONTROL_TS_14A,1,test,P,138,2,740,260,P,1,<rshift>,1,1,160024,321
CONTROL_TS_14A,1,test,P,139,2,740,260,P,1,<rshift>,1,1,161025,392
CONTROL_TS_14A,1,test,P,140,2,740,260,P,1,<rshift>,1,1,162022,350
CONTROL_TS_14A,1,test,P,141,1,540,260,R,0,<rshift>,1,0,163021,344
CONTROL_TS_14A,1,test,P,142,2,740,260,P,1,<rshift>,1,1,164020,328
CONTROL_TS_14A,1,test,P,143,1,540,260,P,1,<rshift>,1,1,165027,415
CONTROL_TS_14A,1,test,P,144,2,740,260,P,1,<rshift>,1,1,166021,286
CONTROL_TS_14A,1,test,P,145,3,540,460,P,1,<rshift>,1,1,167021,356
CONTROL_TS_14A,1,test,P,146,2,740,260,R,0,<rshift>,1,0,168022,344
CONTROL_TS_14A,1,test,P,147,3,540,460,P,1,<rshift>,1,1,169020,329
CONTROL_TS_14A,1,test,P,148,1,540,260,P,1,<rshift>,1,1,170021,276
CONTROL_TS_14A,1,test,P,149,1,540,260,P,1,<rshift>,1,1,171022,407
CONTROL_TS_14A,1,test,P,150,4,740,460,P,1,<rshift>,1,1,172024,295
CONTROL_TS_14A,1,test,P,151,2,740,260,P,1,<rshift>,1,1,173024,655
CONTROL_TS_14A,1,test,P,152,3,540,460,R,0,<rshift>,1,0,174020,258
CONTROL_TS_14A,1,test,P,153,2,740,260,P,1,<rshift>,1,1,175028,316
CONTROL_TS_14A,1,test,P,154,1,540,260,P,1,<rshift>,1,1,176019,360
CONTROL_TS_14A,1,test,P,155,4,740,460,P,1,<rshift>,1,1,177019,296
CONTROL_TS_14A,1,test,P,156,4,740,460,R,0,<rshift>,1,0,178021,349
CONTROL_TS_14A,1,test,P,157,4,740,460,R,0,NONE,0,1,179023,953
CONTROL_TS_14A,1,test,P,158,1,540,260,P,1,<rshift>,1,1,180023,326
CONTROL_TS_14A,1,test,P,159,3,540,460,P,1,<rshift>,1,1,181024,404
CONTROL_TS_14A,1,test,P,160,3,540,460,P,1,<rshift>,1,1,182026,377
CONTROL_TS_14A,1,test,P,161,3,540,460,P,1,<rshift>,1,1,183023,325
CONTROL_TS_14A,1,test,P,162,4,740,460,R,0,NONE,0,1,184020,953
CONTROL_TS_14A,1,test,P,163,2,740,260,R,0,<rshift>,1,0,185023,264
CONTROL_TS_14A,1,test,P,164,4,740,460,R,0,NONE,0,1,186019,954
CONTROL_TS_14A,1,test,P,165,4,740,460,P,1,<rshift>,1,1,187029,444
CONTROL_TS_14A,1,test,P,166,4,740,460,R,0,NONE,0,1,188022,954
CONTROL_TS_14A,1,test,P,167,3,540,460,P,1,<rshift>,1,1,189021,366
CONTROL_TS_14A,1,test,P,168,3,540,460,P,1,<rshift>,1,1,190021,357
CONTROL_TS_14A,1,test,P,169,4,740,460,P,1,<rshift>,1,1,191021,284
CONTROL_TS_14A,1,test,P,170,3,540,460,R,0,<rshift>,1,0,192023,258
CONTROL_TS_14A,1,test,P,171,1,540,260,P,1,<rshift>,1,1,193027,267
CONTROL_TS_14A,1,test,P,172,3,540,460,P,1,<rshift>,1,1,194027,275
CONTROL_TS_14A,1,test,P,173,2,740,260,R,0,<rshift>,1,0,195019,241
CONTROL_TS_14A,1,test,P,174,3,540,460,P,1,<rshift>,1,1,196026,284
CONTROL_TS_14A,1,test,P,175,4,740,460,P,1,<rshift>,1,1,197022,292
CONTROL_TS_14A,1,test,P,176,2,740,260,P,1,<rshift>,1,1,198028,343
CONTROL_TS_14A,1,test,P,177,3,540,460,P,1,<rshift>,1,1,199025,279
CONTROL_TS_14A,1,test,P,178,1,540,260,P,1,<rshift>,1,1,200021,246
CONTROL_TS_14A,1,test,P,179,3,540,460,P,1,<rshift>,1,1,201022,323
CONTROL_TS_14A,1,test,P,180,3,540,460,P,1,<rshift>,1,1,202023,363
CONTROL_TS_14A,1,test,P,181,1,540,260,R,0,<rshift>,1,0,203019,281
CONTROL_TS_14A,1,test,P,182,3,540,460,P,1,<rshift>,1,1,204025,639
CONTROL_TS_14A,1,test,P,183,1,540,260,P,1,<rshift>,1,1,205018,494
CONTROL_TS_14A,1,test,P,184,2,740,260,P,1,<rshift>,1,1,206025,268
CONTROL_TS_14A,1,test,P,185,1,540,260,P,1,<rshift>,1,1,207020,321
CONTROL_TS_14A,1,test,P,186,1,540,260,R,0,<rshift>,1,0,208022,360
CONTROL_TS_14A,1,test,P,187,4,740,460,P,1,<rshift>,1,1,209021,294
CONTROL_TS_14A,1,test,P,188,3,540,460,P,1,<rshift>,1,1,210022,273
CONTROL_TS_14A,1,test,P,189,1,540,260,P,1,<rshift>,1,1,211020,350
CONTROL_TS_14A,1,test,P,190,2,740,260,P,1,<rshift>,1,1,212026,345
CONTROL_TS_14A,1,test,P,191,1,540,260,P,1,<rshift>,1,1,213022,326
CONTROL_TS_14A,1,test,P,192,1,540,260,P,1,NONE,0,0,214023,953
CONTROL_TS_14A,1,test,P,193,4,740,460,P,1,<rshift>,1,1,215021,289
CONTROL_TS_14A,1,test,P,194,2,740,260,R,0,<rshift>,1,0,216023,251
CONTROL_TS_14A,1,test,P,195,4,740,460,R,0,<rshift>,1,0,217028,353
CONTROL_TS_14A,1,test,P,196,4,740,460,R,0,NONE,0,1,218026,952
CONTROL_TS_14A,1,test,P,197,4,740,460,P,1,<rshift>,1,1,219020,407
CONTROL_TS_14A,1,test,P,198,2,740,260,P,1,<rshift>,1,1,220021,420
CONTROL_TS_14A,1,test,P,199,3,540,460,P,1,<rshift>,1,1,221020,303
CONTROL_TS_14A,1,test,P,200,1,540,260,P,1,<rshift>,1,1,222023,255
CONTROL_TS_14A,1,test,P,201,2,740,260,R,0,NONE,0,1,223027,951
CONTROL_TS_14A,1,test,P,202,4,740,460,P,1,<rshift>,1,1,224026,376
CONTROL_TS_14A,1,test,P,203,4,740,460,R,0,NONE,0,1,225022,953
CONTROL_TS_14A,1,test,P,204,1,540,260,P,1,<rshift>,1,1,226023,420
CONTROL_TS_14A,1,test,P,205,4,740,460,P,1,<rshift>,1,1,227020,494
CONTROL_TS_14A,1,test,P,206,1,540,260,P,1,<rshift>,1,1,228022,317
CONTROL_TS_14A,1,test,P,207,4,740,460,P,1,<rshift>,1,1,229022,283
CONTROL_TS_14A,1,test,P,208,1,540,260,P,1,<rshift>,1,1,230024,272
CONTROL_TS_14A,1,test,P,209,4,740,460,P,1,<rshift>,1,1,231017,331
CONTROL_TS_14A,1,test,P,210,4,740,460,P,1,<rshift>,1,1,232024,441
CONTROL_TS_14A,1,test,P,211,1,540,260,P,1,<rshift>,1,1,233024,269
CONTROL_TS_14A,1,test,P,212,4,740,460,P,1,<rshift>,1,1,234022,259
CONTROL_TS_14A,1,test,P,213,2,740,260,P,1,<rshift>,1,1,235021,304
CONTROL_TS_14A,1,test,P,214,4,740,460,P,1,<rshift>,1,1,236025,324
CONTROL_TS_14A,1,test,P,215,4,740,460,R,0,<rshift>,1,0,237026,331
CONTROL_TS_14A,1,test,P,216,1,540,260,P,1,<rshift>,1,1,238026,554
CONTROL_TS_14A,1,test,P,217,4,740,460,P,1,<rshift>,1,1,239022,280
CONTROL_TS_14A,1,test,P,218,4,740,460,P,1,<rshift>,1,1,240022,302
CONTROL_TS_14A,1,test,P,219,3,540,460,P,1,<rshift>,1,1,241025,291
CONTROL_TS_14A,1,test,P,220,2,740,260,P,1,<rshift>,1,1,242021,318
CONTROL_TS_14A,1,test,P,221,1,540,260,R,0,<rshift>,1,0,243021,280
CONTROL_TS_14A,1,test,P,222,2,740,260,P,1,<rshift>,1,1,244021,270
CONTROL_TS_14A,1,test,P,223,1,540,260,P,1,<rshift>,1,1,245024,354
CONTROL_TS_14A,1,test,P,224,2,740,260,R,0,<rshift>,1,0,246020,335
CONTROL_TS_14A,1,test,P,225,3,540,460,P,1,<rshift>,1,1,247021,272
CONTROL_TS_14A,1,test,P,226,1,540,260,P,1,<rshift>,1,1,248019,365
CONTROL_TS_14A,1,test,P,227,3,540,460,P,1,<rshift>,1,1,249020,341
CONTROL_TS_14A,1,test,P,228,3,540,460,P,1,<rshift>,1,1,250022,386
CONTROL_TS_14A,1,test,P,229,2,740,260,R,0,NONE,0,1,251019,953
CONTROL_TS_14A,1,test,P,230,3,540,460,P,1,<rshift>,1,1,252022,340
CONTROL_TS_14A,1,test,P,231,1,540,260,P,1,<rshift>,1,1,253027,345
CONTROL_TS_14A,1,test,P,232,3,540,460,P,1,<rshift>,1,1,254022,375
CONTROL_TS_14A,1,test,P,233,3,540,460,P,1,<rshift>,1,1,255024,350
CONTROL_TS_14A,1,test,P,234,3,540,460,R,0,<rshift>,1,0,256023,301
CONTROL_TS_14A,1,test,P,235,2,740,260,P,1,<rshift>,1,1,257024,294
CONTROL_TS_14A,1,test,P,236,4,740,460,P,1,<rshift>,1,1,258022,306
CONTROL_TS_14A,1,test,P,237,2,740,260,P,1,<rshift>,1,1,259024,480
CONTROL_TS_14A,1,test,P,238,2,740,260,R,0,NONE,0,1,260020,953
CONTROL_TS_14A,1,test,P,239,1,540,260,P,1,<rshift>,1,1,261019,323
CONTROL_TS_14A,1,test,P,240,1,540,260,P,1,<rshift>,1,1,262020,617
CONTROL_TS_14A,1,test,P,241,2,740,260,P,1,<rshift>,1,1,263019,315
CONTROL_TS_14A,1,test,P,242,1,540,260,P,1,<rshift>,1,1,264019,306
CONTROL_TS_14A,1,test,P,243,4,740,460,P,1,<rshift>,1,1,265020,364
CONTROL_TS_14A,1,test,P,244,4,740,460,P,1,<rshift>,1,1,266022,367
CONTROL_TS_14A,1,test,P,245,2,740,260,R,0,NONE,0,1,267020,953
CONTROL_TS_14A,1,test,P,246,2,740,260,P,1,<rshift>,1,1,268020,426
CONTROL_TS_14A,1,test,P,247,1,540,260,R,0,<rshift>,1,0,269024,291
CONTROL_TS_14A,1,test,P,248,1,540,260,P,1,<rshift>,1,1,270026,460
CONTROL_TS_14A,1,test,P,249,1,540,260,P,1,<rshift>,1,1,271026,493
CONTROL_TS_14A,1,test,P,250,2,740,260,P,1,<rshift>,1,1,272026,289
CONTROL_TS_14A,1,test,P,251,2,740,260,P,1,<rshift>,1,1,273023,335
CONTROL_TS_14A,1,test,P,252,4,740,460,R,0,<rshift>,1,0,274023,296
CONTROL_TS_14A,1,test,P,253,2,740,260,P,1,<rshift>,1,1,275022,292
CONTROL_TS_14A,1,test,P,254,2,740,260,P,1,<rshift>,1,1,276023,293
CONTROL_TS_14A,1,test,P,255,1,540,260,P,1,<rshift>,1,1,277023,335
CONTROL_TS_14A,1,test,P,256,1,540,260,P,1,<rshift>,1,1,278020,306
CONTROL_TS_14A,1,test,P,257,2,740,260,P,1,<rshift>,1,1,279023,313
CONTROL_TS_14A,1,test,P,258,1,540,260,P,1,<rshift>,1,1,280021,488
CONTROL_TS_14A,1,test,P,259,1,540,260,P,1,<rshift>,1,1,281021,596
CONTROL_TS_14A,1,test,P,260,2,740,260,P,1,<rshift>,1,1,282026,281
CONTROL_TS_14A,1,test,P,261,2,740,260,P,1,<rshift>,1,1,283019,298
CONTROL_TS_14A,1,test,P,262,1,540,260,P,1,<rshift>,1,1,284024,270
CONTROL_TS_14A,1,test,P,263,3,540,460,P,1,<rshift>,1,1,285020,257
CONTROL_TS_14A,1,test,P,264,2,740,260,P,1,<rshift>,1,1,286024,203
CONTROL_TS_14A,1,test,P,265,3,540,460,P,1,<rshift>,1,1,287021,278
CONTROL_TS_14A,1,test,P,266,2,740,260,P,1,<rshift>,1,1,288020,261
CONTROL_TS_14A,1,test,P,267,4,740,460,P,1,<rshift>,1,1,289019,297
CONTROL_TS_14A,1,test,P,268,1,540,260,P,1,<rshift>,1,1,290022,277
CONTROL_TS_14A,1,test,P,269,3,540,460,P,1,<rshift>,1,1,291022,322
CONTROL_TS_14A,1,test,P,270,3,540,460,P,1,<rshift>,1,1,292023,340
CONTROL_TS_14A,1,test,P,271,2,740,260,P,1,<rshift>,1,1,293020,259
CONTROL_TS_14A,1,test,P,272,1,540,260,R,0,<rshift>,1,0,294027,152
CONTROL_TS_14A,1,test,P,273,1,540,260,P,1,<rshift>,1,1,295022,295
CONTROL_TS_14A,1,test,P,274,2,740,260,P,1,<rshift>,1,1,296023,289
CONTROL_TS_14A,1,test,P,275,1,540,260,P,1,<rshift>,1,1,297020,233
CONTROL_TS_14A,1,test,P,276,3,540,460,P,1,<rshift>,1,1,298026,273
CONTROL_TS_14A,1,test,P,277,1,540,260,P,1,<rshift>,1,1,299021,388
CONTROL_TS_14A,1,test,P,278,2,740,260,P,1,<rshift>,1,1,300020,576
CONTROL_TS_14A,1,test,P,279,4,740,460,R,0,<rshift>,1,0,301021,294
CONTROL_TS_14A,1,test,P,280,4,740,460,P,1,<rshift>,1,1,302021,354
CONTROL_TS_14A,1,test,P,281,2,740,260,P,1,<rshift>,1,1,303022,275
CONTROL_TS_14A,1,test,P,282,3,540,460,P,1,<rshift>,1,1,304019,319
CONTROL_TS_14A,1,test,P,283,1,540,260,P,1,<rshift>,1,1,305020,285
CONTROL_TS_14A,1,test,P,284,2,740,260,P,1,<rshift>,1,1,306025,225
CONTROL_TS_14A,1,test,P,285,3,540,460,P,1,<rshift>,1,1,307018,351
CONTROL_TS_14A,1,test,P,286,2,740,260,P,1,<rshift>,1,1,308020,308
CONTROL_TS_14A,1,test,P,287,1,540,260,P,1,<rshift>,1,1,309025,276
CONTROL_TS_14A,1,test,P,288,2,740,260,P,1,<rshift>,1,1,310023,236
CONTROL_TS_14A,1,test,P,289,3,540,460,P,1,<rshift>,1,1,311024,369
CONTROL_TS_14A,1,test,P,290,1,540,260,P,1,<rshift>,1,1,312021,330
CONTROL_TS_14A,1,test,P,291,3,540,460,P,1,<rshift>,1,1,313025,286
CONTROL_TS_14A,1,test,P,292,4,740,460,P,1,<rshift>,1,1,314025,355
CONTROL_TS_14A,1,test,P,293,4,740,460,R,0,NONE,0,1,315021,952
CONTROL_TS_14A,1,test,P,294,2,740,260,P,1,<rshift>,1,1,316019,328
CONTROL_TS_14A,1,test,P,295,2,740,260,R,0,<rshift>,1,0,317019,329
CONTROL_TS_14A,1,test,P,296,1,540,260,P,1,<rshift>,1,1,318019,293
CONTROL_TS_14A,1,test,P,297,2,740,260,P,1,<rshift>,1,1,319022,446
CONTROL_TS_14A,1,test,P,298,3,540,460,P,1,<rshift>,1,1,320022,273
CONTROL_TS_14A,1,test,P,299,1,540,260,R,0,<rshift>,1,0,321023,242
CONTROL_TS_14A,1,test,P,300,4,740,460,P,1,<rshift>,1,1,322023,291
CONTROL_TS_14A,2,practice,R,1,2,740,260,R,1,<rshift>,1,1,337588,520
CONTROL_TS_14A,2,practice,R,2,1,540,260,R,1,<rshift>,1,1,338592,284
CONTROL_TS_14A,2,practice,R,3,2,740,260,P,0,<rshift>,1,0,339597,253
CONTROL_TS_14A,2,practice,R,4,4,740,460,P,0,<rshift>,1,0,340915,321
CONTROL_TS_14A,2,practice,R,5,1,540,260,R,1,<rshift>,1,1,342301,324
CONTROL_TS_14A,2,practice,R,6,1,540,260,R,1,NONE,0,0,342653,952
CONTROL_TS_14A,2,practice,R,7,3,540,460,R,1,<rshift>,1,1,344647,229
CONTROL_TS_14A,2,practice,R,8,2,740,260,R,1,<rshift>,1,1,344904,524
CONTROL_TS_14A,2,practice,R,9,1,540,260,R,1,<rshift>,1,1,345591,380
CONTROL_TS_14A,2,practice,R,10,1,540,260,R,1,<rshift>,1,1,346590,338
CONTROL_TS_14A,3,test,R,1,2,740,260,P,0,NONE,0,1,350105,952
CONTROL_TS_14A,3,test,R,2,2,740,260,R,1,<rshift>,1,1,351111,525
CONTROL_TS_14A,3,test,R,3,2,740,260,R,1,<rshift>,1,1,352111,395
CONTROL_TS_14A,3,test,R,4,1,540,260,R,1,<rshift>,1,1,353117,325
CONTROL_TS_14A,3,test,R,5,4,740,460,R,1,<rshift>,1,1,354116,289
CONTROL_TS_14A,3,test,R,6,3,540,460,R,1,<rshift>,1,1,355115,271
CONTROL_TS_14A,3,test,R,7,3,540,460,P,0,<rshift>,1,0,356111,300
CONTROL_TS_14A,3,test,R,8,1,540,260,P,0,<rshift>,1,0,357110,182
CONTROL_TS_14A,3,test,R,9,3,540,460,R,1,<rshift>,1,1,358107,59
CONTROL_TS_14A,3,test,R,10,3,540,460,R,1,<rshift>,1,1,359114,335
CONTROL_TS_14A,3,test,R,11,3,540,460,R,1,<rshift>,1,1,360107,399
CONTROL_TS_14A,3,test,R,12,3,540,460,P,0,<rshift>,1,0,361111,285
CONTROL_TS_14A,3,test,R,13,3,540,460,R,1,<rshift>,1,1,362112,445
CONTROL_TS_14A,3,test,R,14,3,540,460,R,1,<rshift>,1,1,363115,288
CONTROL_TS_14A,3,test,R,15,1,540,260,R,1,<rshift>,1,1,364116,479
CONTROL_TS_14A,3,test,R,16,1,540,260,R,1,<rshift>,1,1,365109,380
CONTROL_TS_14A,3,test,R,17,1,540,260,R,1,<rshift>,1,1,366119,360
CONTROL_TS_14A,3,test,R,18,2,740,260,P,0,<rshift>,1,0,367109,253
CONTROL_TS_14A,3,test,R,19,2,740,260,R,1,<rshift>,1,1,368111,186
CONTROL_TS_14A,3,test,R,20,3,540,460,R,1,<rshift>,1,1,369108,316
CONTROL_TS_14A,3,test,R,21,3,540,460,R,1,<rshift>,1,1,370111,234
CONTROL_TS_14A,3,test,R,22,3,540,460,R,1,<rshift>,1,1,371110,305
CONTROL_TS_14A,3,test,R,23,3,540,460,R,1,<rshift>,1,1,372114,262
CONTROL_TS_14A,3,test,R,24,4,740,460,R,1,<rshift>,1,1,373111,350
CONTROL_TS_14A,3,test,R,25,4,740,460,P,0,<rshift>,1,0,374110,325
CONTROL_TS_14A,3,test,R,26,2,740,260,R,1,<rshift>,1,1,375111,232
CONTROL_TS_14A,3,test,R,27,3,540,460,R,1,<rshift>,1,1,376112,289
CONTROL_TS_14A,3,test,R,28,2,740,260,R,1,<rshift>,1,1,377110,326
CONTROL_TS_14A,3,test,R,29,4,740,460,R,1,<rshift>,1,1,378112,331
CONTROL_TS_14A,3,test,R,30,4,740,460,R,1,<rshift>,1,1,379115,344
CONTROL_TS_14A,3,test,R,31,2,740,260,R,1,<rshift>,1,1,380110,405
CONTROL_TS_14A,3,test,R,32,4,740,460,R,1,<rshift>,1,1,381109,322
CONTROL_TS_14A,3,test,R,33,3,540,460,P,0,<rshift>,1,0,382108,312
CONTROL_TS_14A,3,test,R,34,1,540,260,R,1,<rshift>,1,1,383108,293
CONTROL_TS_14A,3,test,R,35,3,540,460,R,1,<rshift>,1,1,384109,414
CONTROL_TS_14A,3,test,R,36,3,540,460,P,0,<rshift>,1,0,385113,385
CONTROL_TS_14A,3,test,R,37,3,540,460,R,1,<rshift>,1,1,386113,691
CONTROL_TS_14A,3,test,R,38,4,740,460,P,0,<rshift>,1,0,387110,330
CONTROL_TS_14A,3,test,R,39,3,540,460,R,1,<rshift>,1,1,388116,309
CONTROL_TS_14A,3,test,R,40,3,540,460,P,0,NONE,0,1,389107,954
CONTROL_TS_14A,3,test,R,41,2,740,260,R,1,<rshift>,1,1,390115,297
CONTROL_TS_14A,3,test,R,42,1,540,260,R,1,<rshift>,1,1,391111,363
CONTROL_TS_14A,3,test,R,43,3,540,460,R,1,<rshift>,1,1,392111,358
CONTROL_TS_14A,3,test,R,44,2,740,260,R,1,<rshift>,1,1,393109,325
CONTROL_TS_14A,3,test,R,45,4,740,460,R,1,<rshift>,1,1,394110,318
CONTROL_TS_14A,3,test,R,46,1,540,260,R,1,<rshift>,1,1,395114,313
CONTROL_TS_14A,3,test,R,47,2,740,260,R,1,<rshift>,1,1,396116,273
CONTROL_TS_14A,3,test,R,48,3,540,460,P,0,<rshift>,1,0,397113,296
CONTROL_TS_14A,3,test,R,49,4,740,460,P,0,NONE,0,1,398108,953
CONTROL_TS_14A,3,test,R,50,2,740,260,R,1,<rshift>,1,1,399109,390
CONTROL_TS_14A,3,test,R,51,2,740,260,R,1,<rshift>,1,1,400116,493
CONTROL_TS_14A,3,test,R,52,1,540,260,P,0,NONE,0,1,401110,953
CONTROL_TS_14A,3,test,R,53,3,540,460,P,0,<rshift>,1,0,402109,365
CONTROL_TS_14A,3,test,R,54,4,740,460,R,1,<rshift>,1,1,403109,340
CONTROL_TS_14A,3,test,R,55,1,540,260,P,0,<rshift>,1,0,404109,291
CONTROL_TS_14A,3,test,R,56,2,740,260,P,0,<rshift>,1,0,405112,368
CONTROL_TS_14A,3,test,R,57,2,740,260,R,1,<rshift>,1,1,406111,399
CONTROL_TS_14A,3,test,R,58,1,540,260,P,0,NONE,0,1,407112,953
CONTROL_TS_14A,3,test,R,59,3,540,460,R,1,<rshift>,1,1,408109,327
CONTROL_TS_14A,3,test,R,60,2,740,260,R,1,<rshift>,1,1,409111,317
CONTROL_TS_14A,3,test,R,61,4,740,460,R,1,<rshift>,1,1,410110,291
CONTROL_TS_14A,3,test,R,62,4,740,460,R,1,<rshift>,1,1,411114,340
CONTROL_TS_14A,3,test,R,63,2,740,260,R,1,<rshift>,1,1,412109,465
CONTROL_TS_14A,3,test,R,64,3,540,460,R,1,<rshift>,1,1,413111,320
CONTROL_TS_14A,3,test,R,65,3,540,460,R,1,<rshift>,1,1,414111,445
CONTROL_TS_14A,3,test,R,66,4,740,460,R,1,<rshift>,1,1,415111,305
CONTROL_TS_14A,3,test,R,67,4,740,460,R,1,<rshift>,1,1,416110,308
CONTROL_TS_14A,3,test,R,68,3,540,460,P,0,<rshift>,1,0,417113,315
CONTROL_TS_14A,3,test,R,69,1,540,260,R,1,<rshift>,1,1,418109,329
CONTROL_TS_14A,3,test,R,70,3,540,460,R,1,<rshift>,1,1,419114,325
CONTROL_TS_14A,3,test,R,71,4,740,460,R,1,<rshift>,1,1,420113,286
CONTROL_TS_14A,3,test,R,72,3,540,460,R,1,<rshift>,1,1,421107,424
CONTROL_TS_14A,3,test,R,73,2,740,260,R,1,<rshift>,1,1,422116,280
CONTROL_TS_14A,3,test,R,74,3,540,460,P,0,<rshift>,1,0,423115,275
CONTROL_TS_14A,3,test,R,75,4,740,460,R,1,<rshift>,1,1,424112,349
CONTROL_TS_14A,3,test,R,76,1,540,260,R,1,<rshift>,1,1,425114,309
CONTROL_TS_14A,3,test,R,77,4,740,460,R,1,<rshift>,1,1,426113,285
CONTROL_TS_14A,3,test,R,78,1,540,260,R,1,<rshift>,1,1,427111,385
CONTROL_TS_14A,3,test,R,79,2,740,260,P,0,<rshift>,1,0,428108,312
CONTROL_TS_14A,3,test,R,80,1,540,260,R,1,<rshift>,1,1,429111,321
CONTROL_TS_14A,3,test,R,81,3,540,460,R,1,<rshift>,1,1,430115,296
CONTROL_TS_14A,3,test,R,82,1,540,260,R,1,<rshift>,1,1,431110,352
CONTROL_TS_14A,3,test,R,83,2,740,260,P,0,NONE,0,1,432112,953
CONTROL_TS_14A,3,test,R,84,4,740,460,R,1,<rshift>,1,1,433117,340
CONTROL_TS_14A,3,test,R,85,2,740,260,R,1,<rshift>,1,1,434112,370
CONTROL_TS_14A,3,test,R,86,1,540,260,R,1,<rshift>,1,1,435115,269
CONTROL_TS_14A,3,test,R,87,3,540,460,R,1,<rshift>,1,1,436110,283
CONTROL_TS_14A,3,test,R,88,3,540,460,R,1,<rshift>,1,1,437112,325
CONTROL_TS_14A,3,test,R,89,2,740,260,P,0,<rshift>,1,0,438109,317
CONTROL_TS_14A,3,test,R,90,1,540,260,R,1,<rshift>,1,1,439109,332
CONTROL_TS_14A,3,test,R,91,4,740,460,R,1,<rshift>,1,1,440113,325
CONTROL_TS_14A,3,test,R,92,2,740,260,R,1,<rshift>,1,1,441109,445
CONTROL_TS_14A,3,test,R,93,1,540,260,R,1,<rshift>,1,1,442107,522
CONTROL_TS_14A,3,test,R,94,2,740,260,R,1,<rshift>,1,1,443115,336
CONTROL_TS_14A,3,test,R,95,4,740,460,R,1,<rshift>,1,1,444112,360
CONTROL_TS_14A,3,test,R,96,2,740,260,P,0,NONE,0,1,445110,953
CONTROL_TS_14A,3,test,R,97,2,740,260,R,1,<rshift>,1,1,446108,474
CONTROL_TS_14A,3,test,R,98,1,540,260,R,1,<rshift>,1,1,447109,372
CONTROL_TS_14A,3,test,R,99,1,540,260,R,1,<rshift>,1,1,448117,319
CONTROL_TS_14A,3,test,R,100,3,540,460,R,1,<rshift>,1,1,449114,347
CONTROL_TS_14A,3,test,R,101,3,540,460,R,1,<rshift>,1,1,450113,389
CONTROL_TS_14A,3,test,R,102,3,540,460,R,1,<rshift>,1,1,451109,384
CONTROL_TS_14A,3,test,R,103,2,740,260,R,1,<rshift>,1,1,452110,300
CONTROL_TS_14A,3,test,R,104,2,740,260,R,1,<rshift>,1,1,453112,562
CONTROL_TS_14A,3,test,R,105,3,540,460,R,1,<rshift>,1,1,454117,281
CONTROL_TS_14A,3,test,R,106,3,540,460,R,1,<rshift>,1,1,455110,289
CONTROL_TS_14A,3,test,R,107,3,540,460,R,1,<rshift>,1,1,456110,279
CONTROL_TS_14A,3,test,R,108,4,740,460,R,1,<rshift>,1,1,457114,259
CONTROL_TS_14A,3,test,R,109,1,540,260,P,0,<rshift>,1,0,458112,279
CONTROL_TS_14A,3,test,R,110,3,540,460,R,1,<rshift>,1,1,459109,368
CONTROL_TS_14A,3,test,R,111,1,540,260,R,1,<rshift>,1,1,460112,525
CONTROL_TS_14A,3,test,R,112,3,540,460,R,1,<rshift>,1,1,461111,356
CONTROL_TS_14A,3,test,R,113,4,740,460,R,1,<rshift>,1,1,462111,278
CONTROL_TS_14A,3,test,R,114,2,740,260,R,1,<rshift>,1,1,463109,317
CONTROL_TS_14A,3,test,R,115,2,740,260,R,1,<rshift>,1,1,464114,302
CONTROL_TS_14A,3,test,R,116,1,540,260,R,1,<rshift>,1,1,465113,323
CONTROL_TS_14A,3,test,R,117,1,540,260,R,1,<rshift>,1,1,466110,367
CONTROL_TS_14A,3,test,R,118,2,740,260,R,1,<rshift>,1,1,467111,278
CONTROL_TS_14A,3,test,R,119,1,540,260,P,0,<rshift>,1,0,468114,262
CONTROL_TS_14A,3,test,R,120,1,540,260,R,1,<rshift>,1,1,469111,299
CONTROL_TS_14A,3,test,R,121,2,740,260,P,0,<rshift>,1,0,470109,267
CONTROL_TS_14A,3,test,R,122,2,740,260,R,1,<rshift>,1,1,471111,430
CONTROL_TS_14A,3,test,R,123,2,740,260,R,1,<rshift>,1,1,472113,349
CONTROL_TS_14A,3,test,R,124,1,540,260,R,1,<rshift>,1,1,473110,334
CONTROL_TS_14A,3,test,R,125,1,540,260,R,1,<rshift>,1,1,474110,388
CONTROL_TS_14A,3,test,R,126,2,740,260,R,1,<rshift>,1,1,475112,279
CONTROL_TS_14A,3,test,R,127,1,540,260,R,1,<rshift>,1,1,476111,345
CONTROL_TS_14A,3,test,R,128,1,540,260,R,1,<rshift>,1,1,477114,283
CONTROL_TS_14A,3,test,R,129,4,740,460,R,1,<rshift>,1,1,478111,301
CONTROL_TS_14A,3,test,R,130,1,540,260,P,0,<rshift>,1,0,479111,355
CONTROL_TS_14A,3,test,R,131,1,540,260,R,1,<rshift>,1,1,480111,576
CONTROL_TS_14A,3,test,R,132,1,540,260,R,1,<rshift>,1,1,481109,333
CONTROL_TS_14A,3,test,R,133,1,540,260,R,1,<rshift>,1,1,482117,246
CONTROL_TS_14A,3,test,R,134,3,540,460,P,0,NONE,0,1,483108,953
CONTROL_TS_14A,3,test,R,135,3,540,460,R,1,<rshift>,1,1,484109,366
CONTROL_TS_14A,3,test,R,136,3,540,460,R,1,<rshift>,1,1,485111,365
CONTROL_TS_14A,3,test,R,137,1,540,260,R,1,<rshift>,1,1,486109,295
CONTROL_TS_14A,3,test,R,138,3,540,460,R,1,<rshift>,1,1,487111,524
CONTROL_TS_14A,3,test,R,139,3,540,460,R,1,<rshift>,1,1,488109,422
CONTROL_TS_14A,3,test,R,140,1,540,260,R,1,<rshift>,1,1,489110,315
CONTROL_TS_14A,3,test,R,141,1,540,260,R,1,<rshift>,1,1,490109,399
CONTROL_TS_14A,3,test,R,142,3,540,460,P,0,<rshift>,1,0,491112,292
CONTROL_TS_14A,3,test,R,143,2,740,260,R,1,<rshift>,1,1,492115,288
CONTROL_TS_14A,3,test,R,144,2,740,260,R,1,<rshift>,1,1,493107,394
CONTROL_TS_14A,3,test,R,145,1,540,260,P,0,<rshift>,1,0,494112,413
CONTROL_TS_14A,3,test,R,146,3,540,460,R,1,<rshift>,1,1,495115,336
CONTROL_TS_14A,3,test,R,147,4,740,460,R,1,<rshift>,1,1,496113,299
CONTROL_TS_14A,3,test,R,148,2,740,260,R,1,<rshift>,1,1,497109,264
CONTROL_TS_14A,3,test,R,149,4,740,460,R,1,<rshift>,1,1,498110,379
CONTROL_TS_14A,3,test,R,150,2,740,260,P,0,NONE,0,1,499113,952
CONTROL_TS_14A,3,test,R,151,1,540,260,R,1,<rshift>,1,1,500109,345
CONTROL_TS_14A,3,test,R,152,2,740,260,P,0,NONE,0,1,501110,953
CONTROL_TS_14A,3,test,R,153,4,740,460,P,0,<rshift>,1,0,502109,348
CONTROL_TS_14A,3,test,R,154,3,540,460,R,1,<rshift>,1,1,503115,335
CONTROL_TS_14A,3,test,R,155,2,740,260,R,1,<rshift>,1,1,504111,344
CONTROL_TS_14A,3,test,R,156,3,540,460,R,1,<rshift>,1,1,505110,406
CONTROL_TS_14A,3,test,R,157,2,740,260,R,1,<rshift>,1,1,506109,320
CONTROL_TS_14A,3,test,R,158,4,740,460,P,0,<rshift>,1,0,507112,342
CONTROL_TS_14A,3,test,R,159,1,540,260,R,1,<rshift>,1,1,508111,359
CONTROL_TS_14A,3,test,R,160,1,540,260,P,0,NONE,0,1,509113,953
CONTROL_TS_14A,3,test,R,161,1,540,260,P,0,NONE,0,1,510110,952
CONTROL_TS_14A,3,test,R,162,4,740,460,P,0,NONE,0,1,511109,953
CONTROL_TS_14A,3,test,R,163,1,540,260,R,1,<rshift>,1,1,512110,521
CONTROL_TS_14A,3,test,R,164,1,540,260,P,0,<rshift>,1,0,513108,315
CONTROL_TS_14A,3,test,R,165,4,740,460,R,1,<rshift>,1,1,514108,322
CONTROL_TS_14A,3,test,R,166,2,740,260,R,1,<rshift>,1,1,515112,427
CONTROL_TS_14A,3,test,R,167,2,740,260,R,1,<rshift>,1,1,516113,329
CONTROL_TS_14A,3,test,R,168,2,740,260,R,1,<rshift>,1,1,517111,370
CONTROL_TS_14A,3,test,R,169,4,740,460,R,1,<rshift>,1,1,518110,348
CONTROL_TS_14A,3,test,R,170,4,740,460,R,1,<rshift>,1,1,519113,383
CONTROL_TS_14A,3,test,R,171,1,540,260,R,1,<rshift>,1,1,520116,359
CONTROL_TS_14A,3,test,R,172,2,740,260,P,0,NONE,0,1,521108,953
CONTROL_TS_14A,3,test,R,173,2,740,260,R,1,<rshift>,1,1,522111,468
CONTROL_TS_14A,3,test,R,174,1,540,260,R,1,<rshift>,1,1,523113,337
CONTROL_TS_14A,3,test,R,175,2,740,260,R,1,<rshift>,1,1,524108,258
CONTROL_TS_14A,3,test,R,176,4,740,460,P,0,<rshift>,1,0,525117,348
CONTROL_TS_14A,3,test,R,177,1,540,260,R,1,<rshift>,1,1,526108,514
CONTROL_TS_14A,3,test,R,178,2,740,260,R,1,<rshift>,1,1,527108,288
CONTROL_TS_14A,3,test,R,179,3,540,460,R,1,<rshift>,1,1,528110,325
CONTROL_TS_14A,3,test,R,180,1,540,260,R,1,<rshift>,1,1,529110,440
CONTROL_TS_14A,3,test,R,181,4,740,460,P,0,NONE,0,1,530115,952
CONTROL_TS_14A,3,test,R,182,3,540,460,R,1,<rshift>,1,1,531105,277
CONTROL_TS_14A,3,test,R,183,4,740,460,R,1,<rshift>,1,1,532108,310
CONTROL_TS_14A,3,test,R,184,2,740,260,R,1,<rshift>,1,1,533108,302
CONTROL_TS_14A,3,test,R,185,3,540,460,P,0,<rshift>,1,0,534111,374
CONTROL_TS_14A,3,test,R,186,1,540,260,R,1,<rshift>,1,1,535113,379
CONTROL_TS_14A,3,test,R,187,4,740,460,R,1,<rshift>,1,1,536110,481
CONTROL_TS_14A,3,test,R,188,4,740,460,R,1,<rshift>,1,1,537111,651
CONTROL_TS_14A,3,test,R,189,2,740,260,P,0,<rshift>,1,0,538112,361
CONTROL_TS_14A,3,test,R,190,3,540,460,R,1,<rshift>,1,1,539115,336
CONTROL_TS_14A,3,test,R,191,3,540,460,R,1,<rshift>,1,1,540110,388
CONTROL_TS_14A,3,test,R,192,1,540,260,R,1,<rshift>,1,1,541110,356
CONTROL_TS_14A,3,test,R,193,1,540,260,R,1,<rshift>,1,1,542109,451
CONTROL_TS_14A,3,test,R,194,2,740,260,R,1,<rshift>,1,1,543115,360
CONTROL_TS_14A,3,test,R,195,4,740,460,R,1,<rshift>,1,1,544110,283
CONTROL_TS_14A,3,test,R,196,1,540,260,R,1,<rshift>,1,1,545109,525
CONTROL_TS_14A,3,test,R,197,2,740,260,R,1,<rshift>,1,1,546109,299
CONTROL_TS_14A,3,test,R,198,1,540,260,R,1,<rshift>,1,1,547110,341
CONTROL_TS_14A,3,test,R,199,1,540,260,R,1,<rshift>,1,1,548115,398
CONTROL_TS_14A,3,test,R,200,3,540,460,R,1,<rshift>,1,1,549114,346
CONTROL_TS_14A,3,test,R,201,4,740,460,R,1,<rshift>,1,1,550114,309
CONTROL_TS_14A,3,test,R,202,1,540,260,R,1,<rshift>,1,1,551109,320
CONTROL_TS_14A,3,test,R,203,4,740,460,R,1,<rshift>,1,1,552116,238
CONTROL_TS_14A,3,test,R,204,3,540,460,R,1,<rshift>,1,1,553110,330
CONTROL_TS_14A,3,test,R,205,2,740,260,R,1,<rshift>,1,1,554117,287
CONTROL_TS_14A,3,test,R,206,4,740,460,R,1,<rshift>,1,1,555116,305
CONTROL_TS_14A,3,test,R,207,1,540,260,R,1,<rshift>,1,1,556109,268
CONTROL_TS_14A,3,test,R,208,4,740,460,R,1,<rshift>,1,1,557111,317
CONTROL_TS_14A,3,test,R,209,4,740,460,R,1,<rshift>,1,1,558108,356
CONTROL_TS_14A,3,test,R,210,4,740,460,R,1,<rshift>,1,1,559113,371
CONTROL_TS_14A,3,test,R,211,1,540,260,R,1,<rshift>,1,1,560111,303
CONTROL_TS_14A,3,test,R,212,2,740,260,P,0,<rshift>,1,0,561111,261
CONTROL_TS_14A,3,test,R,213,3,540,460,R,1,<rshift>,1,1,562109,556
CONTROL_TS_14A,3,test,R,214,3,540,460,R,1,<rshift>,1,1,563112,378
CONTROL_TS_14A,3,test,R,215,1,540,260,R,1,<rshift>,1,1,564110,362
CONTROL_TS_14A,3,test,R,216,3,540,460,R,1,<rshift>,1,1,565110,363
CONTROL_TS_14A,3,test,R,217,2,740,260,R,1,<rshift>,1,1,566111,495
CONTROL_TS_14A,3,test,R,218,4,740,460,R,1,<rshift>,1,1,567108,324
CONTROL_TS_14A,3,test,R,219,3,540,460,R,1,<rshift>,1,1,568110,250
CONTROL_TS_14A,3,test,R,220,1,540,260,R,1,<rshift>,1,1,569113,247
CONTROL_TS_14A,3,test,R,221,4,740,460,R,1,<rshift>,1,1,570110,349
CONTROL_TS_14A,3,test,R,222,4,740,460,R,1,<rshift>,1,1,571110,345
CONTROL_TS_14A,3,test,R,223,4,740,460,R,1,<rshift>,1,1,572112,329
CONTROL_TS_14A,3,test,R,224,1,540,260,P,0,<rshift>,1,0,573115,314
CONTROL_TS_14A,3,test,R,225,1,540,260,R,1,<rshift>,1,1,574115,463
CONTROL_TS_14A,3,test,R,226,3,540,460,R,1,<rshift>,1,1,575112,301
CONTROL_TS_14A,3,test,R,227,3,540,460,R,1,<rshift>,1,1,576110,325
CONTROL_TS_14A,3,test,R,228,3,540,460,R,1,<rshift>,1,1,577111,281
CONTROL_TS_14A,3,test,R,229,1,540,260,R,1,<rshift>,1,1,578111,250
CONTROL_TS_14A,3,test,R,230,4,740,460,R,1,<rshift>,1,1,579109,268
CONTROL_TS_14A,3,test,R,231,1,540,260,R,1,<rshift>,1,1,580112,345
CONTROL_TS_14A,3,test,R,232,3,540,460,R,1,<rshift>,1,1,581115,379
CONTROL_TS_14A,3,test,R,233,2,740,260,R,1,<rshift>,1,1,582110,270
CONTROL_TS_14A,3,test,R,234,4,740,460,P,0,<rshift>,1,0,583108,336
CONTROL_TS_14A,3,test,R,235,1,540,260,R,1,<rshift>,1,1,584115,420
CONTROL_TS_14A,3,test,R,236,2,740,260,R,1,<rshift>,1,1,585111,303
CONTROL_TS_14A,3,test,R,237,4,740,460,P,0,NONE,0,1,586110,953
CONTROL_TS_14A,3,test,R,238,1,540,260,R,1,<rshift>,1,1,587109,347
CONTROL_TS_14A,3,test,R,239,2,740,260,R,1,<rshift>,1,1,588110,349
CONTROL_TS_14A,3,test,R,240,3,540,460,P,0,<rshift>,1,0,589110,330
CONTROL_TS_14A,3,test,R,241,1,540,260,R,1,<rshift>,1,1,590109,377
CONTROL_TS_14A,3,test,R,242,1,540,260,R,1,<rshift>,1,1,591111,460
CONTROL_TS_14A,3,test,R,243,3,540,460,R,1,<rshift>,1,1,592108,440
CONTROL_TS_14A,3,test,R,244,3,540,460,R,1,<rshift>,1,1,593113,452
CONTROL_TS_14A,3,test,R,245,3,540,460,R,1,<rshift>,1,1,594107,360
CONTROL_TS_14A,3,test,R,246,3,540,460,P,0,<rshift>,1,0,595109,275
CONTROL_TS_14A,3,test,R,247,2,740,260,R,1,<rshift>,1,1,596111,347
CONTROL_TS_14A,3,test,R,248,3,540,460,R,1,<rshift>,1,1,597112,423
CONTROL_TS_14A,3,test,R,249,3,540,460,R,1,<rshift>,1,1,598115,519
CONTROL_TS_14A,3,test,R,250,4,740,460,P,0,<rshift>,1,0,599109,332
CONTROL_TS_14A,3,test,R,251,4,740,460,R,1,<rshift>,1,1,600115,450
CONTROL_TS_14A,3,test,R,252,2,740,260,P,0,NONE,0,1,601106,953
CONTROL_TS_14A,3,test,R,253,4,740,460,R,1,<rshift>,1,1,602116,335
CONTROL_TS_14A,3,test,R,254,3,540,460,R,1,<rshift>,1,1,603113,347
CONTROL_TS_14A,3,test,R,255,3,540,460,R,1,<rshift>,1,1,604112,402
CONTROL_TS_14A,3,test,R,256,2,740,260,R,1,NONE,0,0,605116,953
CONTROL_TS_14A,3,test,R,257,3,540,460,R,1,<rshift>,1,1,606114,330
CONTROL_TS_14A,3,test,R,258,2,740,260,R,1,<rshift>,1,1,607113,293
CONTROL_TS_14A,3,test,R,259,1,540,260,P,0,NONE,0,1,608114,953
CONTROL_TS_14A,3,test,R,260,3,540,460,R,1,<rshift>,1,1,609109,316
CONTROL_TS_14A,3,test,R,261,3,540,460,P,0,NONE,0,1,610109,953
CONTROL_TS_14A,3,test,R,262,3,540,460,R,1,<rshift>,1,1,611113,441
CONTROL_TS_14A,3,test,R,263,1,540,260,R,1,<rshift>,1,1,612110,430
CONTROL_TS_14A,3,test,R,264,1,540,260,R,1,NONE,0,0,613109,951
CONTROL_TS_14A,3,test,R,265,4,740,460,R,1,<rshift>,1,1,614111,359
CONTROL_TS_14A,3,test,R,266,3,540,460,R,1,<rshift>,1,1,615110,387
CONTROL_TS_14A,3,test,R,267,4,740,460,R,1,<rshift>,1,1,616111,342
CONTROL_TS_14A,3,test,R,268,1,540,260,R,1,<rshift>,1,1,617110,331
CONTROL_TS_14A,3,test,R,269,4,740,460,R,1,<rshift>,1,1,618113,286
CONTROL_TS_14A,3,test,R,270,4,740,460,R,1,<rshift>,1,1,619109,379
CONTROL_TS_14A,3,test,R,271,1,540,260,R,1,<rshift>,1,1,620113,419
CONTROL_TS_14A,3,test,R,272,3,540,460,P,0,<rshift>,1,0,621110,423
CONTROL_TS_14A,3,test,R,273,2,740,260,R,1,<rshift>,1,1,622113,248
CONTROL_TS_14A,3,test,R,274,1,540,260,R,1,<rshift>,1,1,623111,494
CONTROL_TS_14A,3,test,R,275,4,740,460,P,0,<rshift>,1,0,624114,318
CONTROL_TS_14A,3,test,R,276,2,740,260,R,1,<rshift>,1,1,625109,328
CONTROL_TS_14A,3,test,R,277,3,540,460,R,1,<rshift>,1,1,626115,357
CONTROL_TS_14A,3,test,R,278,2,740,260,P,0,NONE,0,1,627107,953
CONTROL_TS_14A,3,test,R,279,3,540,460,R,1,<rshift>,1,1,628114,383
CONTROL_TS_14A,3,test,R,280,1,540,260,R,1,<rshift>,1,1,629109,341
CONTROL_TS_14A,3,test,R,281,1,540,260,R,1,<rshift>,1,1,630110,392
CONTROL_TS_14A,3,test,R,282,1,540,260,P,0,<rshift>,1,0,631114,395
CONTROL_TS_14A,3,test,R,283,2,740,260,R,1,<rshift>,1,1,632109,292
CONTROL_TS_14A,3,test,R,284,1,540,260,R,1,<rshift>,1,1,633109,682
CONTROL_TS_14A,3,test,R,285,1,540,260,P,0,<rshift>,1,0,634108,359
CONTROL_TS_14A,3,test,R,286,4,740,460,R,1,<rshift>,1,1,635110,434
CONTROL_TS_14A,3,test,R,287,1,540,260,R,1,<rshift>,1,1,636109,335
CONTROL_TS_14A,3,test,R,288,3,540,460,R,1,<rshift>,1,1,637110,342
CONTROL_TS_14A,3,test,R,289,4,740,460,R,1,<rshift>,1,1,638110,338
CONTROL_TS_14A,3,test,R,290,4,740,460,P,0,NONE,0,1,639109,952
CONTROL_TS_14A,3,test,R,291,3,540,460,R,1,<rshift>,1,1,640112,384
CONTROL_TS_14A,3,test,R,292,3,540,460,R,1,<rshift>,1,1,641113,377
CONTROL_TS_14A,3,test,R,293,2,740,260,R,1,<rshift>,1,1,642112,309
CONTROL_TS_14A,3,test,R,294,2,740,260,R,1,<rshift>,1,1,643110,389
CONTROL_TS_14A,3,test,R,295,1,540,260,P,0,<rshift>,1,0,644109,358
CONTROL_TS_14A,3,test,R,296,1,540,260,R,1,<rshift>,1,1,645110,540
CONTROL_TS_14A,3,test,R,297,4,740,460,R,1,<rshift>,1,1,646110,338
CONTROL_TS_14A,3,test,R,298,3,540,460,R,1,<rshift>,1,1,647109,275
CONTROL_TS_14A,3,test,R,299,4,740,460,R,1,<rshift>,1,1,648112,349
CONTROL_TS_14A,3,test,R,300,3,540,460,R,1,<rshift>,1,1,649110,302
