subnum,block,type,correctresponse,trial,choice,x,y,stim,present,response,responded,corr,starttime,rt
Control_TS_4_B,0,practice,P,1,1,620,350,P,1,NONE,0,0,19015,950
Control_TS_4_B,0,practice,P,2,1,620,350,R,0,NONE,0,1,20984,951
Control_TS_4_B,0,practice,P,3,2,820,350,P,1,NONE,0,0,21942,950
Control_TS_4_B,0,practice,P,4,2,820,350,P,1,<rshift>,1,1,23908,491
Control_TS_4_B,0,practice,P,5,4,820,550,R,0,NONE,0,1,24410,950
Control_TS_4_B,0,practice,P,6,4,820,550,P,1,NONE,0,0,25365,950
Control_TS_4_B,0,practice,P,7,1,620,350,P,1,<rshift>,1,1,27331,363
Control_TS_4_B,0,practice,P,8,2,820,350,P,1,<rshift>,1,1,27702,591
Control_TS_4_B,0,practice,P,9,1,620,350,P,1,<rshift>,1,1,28298,516
Control_TS_4_B,0,practice,P,10,2,820,350,P,1,<rshift>,1,1,28817,427
Control_TS_4_B,1,test,P,1,2,820,350,R,0,NONE,0,1,36641,950
Control_TS_4_B,1,test,P,2,1,620,350,R,0,NONE,0,1,37641,950
Control_TS_4_B,1,test,P,3,2,820,350,P,1,<rshift>,1,1,38640,413
Control_TS_4_B,1,test,P,4,2,820,350,P,1,<rshift>,1,1,39641,450
Control_TS_4_B,1,test,P,5,2,820,350,P,1,<rshift>,1,1,40640,334
Control_TS_4_B,1,test,P,6,4,820,550,P,1,<rshift>,1,1,41641,359
Control_TS_4_B,1,test,P,7,3,620,550,R,0,NONE,0,1,42641,950
Control_TS_4_B,1,test,P,8,4,820,550,P,1,<rshift>,1,1,43641,371
Control_TS_4_B,1,test,P,9,2,820,350,P,1,<rshift>,1,1,44641,548
Control_TS_4_B,1,test,P,10,2,820,350,R,0,NONE,0,1,45640,950
Control_TS_4_B,1,test,P,11,2,820,350,P,1,<rshift>,1,1,46642,449
Control_TS_4_B,1,test,P,12,1,620,350,P,1,<rshift>,1,1,47640,417
Control_TS_4_B,1,test,P,13,4,820,550,P,1,<rshift>,1,1,48639,324
Control_TS_4_B,1,test,P,14,3,620,550,P,1,<rshift>,1,1,49641,366
Control_TS_4_B,1,test,P,15,1,620,350,P,1,<rshift>,1,1,50641,359
Control_TS_4_B,1,test,P,16,4,820,550,P,1,<rshift>,1,1,51640,505
Control_TS_4_B,1,test,P,17,3,620,550,P,1,<rshift>,1,1,52639,418
Control_TS_4_B,1,test,P,18,4,820,550,R,0,<rshift>,1,0,53641,326
Control_TS_4_B,1,test,P,19,4,820,550,P,1,<rshift>,1,1,54640,513
Control_TS_4_B,1,test,P,20,3,620,550,R,0,NONE,0,1,55641,950
Control_TS_4_B,1,test,P,21,3,620,550,P,1,<rshift>,1,1,56641,454
Control_TS_4_B,1,test,P,22,4,820,550,P,1,<rshift>,1,1,57641,362
Control_TS_4_B,1,test,P,23,2,820,350,P,1,<rshift>,1,1,58640,487
Control_TS_4_B,1,test,P,24,2,820,350,P,1,<rshift>,1,1,59640,387
Control_TS_4_B,1,test,P,25,1,620,350,P,1,<rshift>,1,1,60640,428
Control_TS_4_B,1,test,P,26,3,620,550,R,0,<rshift>,1,0,61640,334
Control_TS_4_B,1,test,P,27,2,820,350,R,0,<rshift>,1,0,62641,458
Control_TS_4_B,1,test,P,28,1,620,350,P,1,<rshift>,1,1,63641,546
Control_TS_4_B,1,test,P,29,2,820,350,P,1,<rshift>,1,1,64640,476
Control_TS_4_B,1,test,P,30,3,620,550,P,1,<rshift>,1,1,65640,506
Control_TS_4_B,1,test,P,31,4,820,550,P,1,<rshift>,1,1,66640,422
Control_TS_4_B,1,test,P,32,1,620,350,P,1,<rshift>,1,1,67641,444
Control_TS_4_B,1,test,P,33,2,820,350,P,1,<rshift>,1,1,68641,382
Control_TS_4_B,1,test,P,34,1,620,350,P,1,<rshift>,1,1,69639,399
Control_TS_4_B,1,test,P,35,3,620,550,P,1,<rshift>,1,1,70640,407
Control_TS_4_B,1,test,P,36,1,620,350,P,1,<rshift>,1,1,71641,357
Control_TS_4_B,1,test,P,37,2,820,350,P,1,<rshift>,1,1,72641,379
Control_TS_4_B,1,test,P,38,4,820,550,P,1,<rshift>,1,1,73641,477
Control_TS_4_B,1,test,P,39,1,620,350,R,0,<rshift>,1,0,74641,389
Control_TS_4_B,1,test,P,40,3,620,550,P,1,<rshift>,1,1,75639,463
Control_TS_4_B,1,test,P,41,3,620,550,R,0,NONE,0,1,76641,950
Control_TS_4_B,1,test,P,42,4,820,550,R,0,NONE,0,1,77641,950
Control_TS_4_B,1,test,P,43,2,820,350,R,0,NONE,0,1,78640,950
Control_TS_4_B,1,test,P,44,2,820,350,P,1,<rshift>,1,1,79640,497
Control_TS_4_B,1,test,P,45,1,620,350,R,0,NONE,0,1,80640,950
Control_TS_4_B,1,test,P,46,2,820,350,P,1,<rshift>,1,1,81641,394
Control_TS_4_B,1,test,P,47,1,620,350,P,1,<rshift>,1,1,82641,513
Control_TS_4_B,1,test,P,48,1,620,350,P,1,<rshift>,1,1,83641,412
Control_TS_4_B,1,test,P,49,4,820,550,P,1,<rshift>,1,1,84639,414
Control_TS_4_B,1,test,P,50,4,820,550,P,1,<rshift>,1,1,85641,483
Control_TS_4_B,1,test,P,51,2,820,350,P,1,<rshift>,1,1,86641,506
Control_TS_4_B,1,test,P,52,4,820,550,P,1,<rshift>,1,1,87641,404
Control_TS_4_B,1,test,P,53,4,820,550,P,1,<rshift>,1,1,88641,453
Control_TS_4_B,1,test,P,54,4,820,550,P,1,<rshift>,1,1,89641,423
Control_TS_4_B,1,test,P,55,3,620,550,P,1,<rshift>,1,1,90640,533
Control_TS_4_B,1,test,P,56,3,620,550,P,1,<rshift>,1,1,91641,332
Control_TS_4_B,1,test,P,57,1,620,350,P,1,<rshift>,1,1,92641,424
Control_TS_4_B,1,test,P,58,2,820,350,P,1,<rshift>,1,1,93641,394
Control_TS_4_B,1,test,P,59,2,820,350,P,1,<rshift>,1,1,94639,460
Control_TS_4_B,1,test,P,60,3,620,550,P,1,<rshift>,1,1,95641,409
Control_TS_4_B,1,test,P,61,1,620,350,P,1,<rshift>,1,1,96641,599
Control_TS_4_B,1,test,P,62,3,620,550,P,1,<rshift>,1,1,97640,412
Control_TS_4_B,1,test,P,63,4,820,550,R,0,NONE,0,1,98641,950
Control_TS_4_B,1,test,P,64,2,820,350,P,1,<rshift>,1,1,99641,310
Control_TS_4_B,1,test,P,65,1,620,350,P,1,<rshift>,1,1,100639,346
Control_TS_4_B,1,test,P,66,3,620,550,P,1,<rshift>,1,1,101641,437
Control_TS_4_B,1,test,P,67,4,820,550,R,0,NONE,0,1,102641,950
Control_TS_4_B,1,test,P,68,3,620,550,R,0,NONE,0,1,103640,950
Control_TS_4_B,1,test,P,69,2,820,350,P,1,<rshift>,1,1,104641,451
Control_TS_4_B,1,test,P,70,1,620,350,P,1,<rshift>,1,1,105640,428
Control_TS_4_B,1,test,P,71,3,620,550,P,1,<rshift>,1,1,106641,383
Control_TS_4_B,1,test,P,72,2,820,350,P,1,<rshift>,1,1,107640,399
Control_TS_4_B,1,test,P,73,1,620,350,R,0,<rshift>,1,0,108641,344
Control_TS_4_B,1,test,P,74,1,620,350,P,1,<rshift>,1,1,109640,609
Control_TS_4_B,1,test,P,75,4,820,550,P,1,<rshift>,1,1,110641,451
Control_TS_4_B,1,test,P,76,2,820,350,P,1,<rshift>,1,1,111641,384
Control_TS_4_B,1,test,P,77,1,620,350,P,1,<rshift>,1,1,112640,442
Control_TS_4_B,1,test,P,78,1,620,350,P,1,<rshift>,1,1,113641,388
Control_TS_4_B,1,test,P,79,1,620,350,P,1,<rshift>,1,1,114641,378
Control_TS_4_B,1,test,P,80,1,620,350,P,1,<rshift>,1,1,115640,404
Control_TS_4_B,1,test,P,81,4,820,550,P,1,<rshift>,1,1,116639,410
Control_TS_4_B,1,test,P,82,2,820,350,P,1,<rshift>,1,1,117641,411
Control_TS_4_B,1,test,P,83,1,620,350,P,1,<rshift>,1,1,118640,405
Control_TS_4_B,1,test,P,84,3,620,550,P,1,<rshift>,1,1,119641,389
Control_TS_4_B,1,test,P,85,3,620,550,P,1,<rshift>,1,1,120640,380
Control_TS_4_B,1,test,P,86,4,820,550,P,1,<rshift>,1,1,121641,345
Control_TS_4_B,1,test,P,87,1,620,350,P,1,<rshift>,1,1,122641,342
Control_TS_4_B,1,test,P,88,2,820,350,P,1,<rshift>,1,1,123641,441
Control_TS_4_B,1,test,P,89,3,620,550,P,1,<rshift>,1,1,124641,404
Control_TS_4_B,1,test,P,90,3,620,550,P,1,<rshift>,1,1,125641,480
Control_TS_4_B,1,test,P,91,4,820,550,R,0,NONE,0,1,126641,950
Control_TS_4_B,1,test,P,92,3,620,550,R,0,<rshift>,1,0,127640,341
Control_TS_4_B,1,test,P,93,2,820,350,R,0,<rshift>,1,0,128641,410
Control_TS_4_B,1,test,P,94,2,820,350,P,1,NONE,0,0,129641,950
Control_TS_4_B,1,test,P,95,4,820,550,P,1,<rshift>,1,1,130640,796
Control_TS_4_B,1,test,P,96,3,620,550,P,1,<rshift>,1,1,131639,442
Control_TS_4_B,1,test,P,97,2,820,350,P,1,<rshift>,1,1,132641,392
Control_TS_4_B,1,test,P,98,3,620,550,P,1,<rshift>,1,1,133642,466
Control_TS_4_B,1,test,P,99,1,620,350,P,1,<rshift>,1,1,134640,463
Control_TS_4_B,1,test,P,100,4,820,550,R,0,NONE,0,1,135641,950
Control_TS_4_B,1,test,P,101,3,620,550,P,1,NONE,0,0,136639,950
Control_TS_4_B,1,test,P,102,2,820,350,P,1,<rshift>,1,1,137641,360
Control_TS_4_B,1,test,P,103,4,820,550,R,0,<rshift>,1,0,138641,376
Control_TS_4_B,1,test,P,104,1,620,350,P,1,<rshift>,1,1,139641,470
Control_TS_4_B,1,test,P,105,4,820,550,P,1,<rshift>,1,1,140641,505
Control_TS_4_B,1,test,P,106,4,820,550,P,1,<rshift>,1,1,141641,443
Control_TS_4_B,1,test,P,107,2,820,350,P,1,<rshift>,1,1,142642,774
Control_TS_4_B,1,test,P,108,2,820,350,P,1,<rshift>,1,1,143641,528
Control_TS_4_B,1,test,P,109,3,620,550,P,1,<rshift>,1,1,144641,538
Control_TS_4_B,1,test,P,110,3,620,550,P,1,<rshift>,1,1,145640,420
Control_TS_4_B,1,test,P,111,4,820,550,R,0,NONE,0,1,146640,950
Control_TS_4_B,1,test,P,112,2,820,350,P,1,<rshift>,1,1,147640,488
Control_TS_4_B,1,test,P,113,4,820,550,R,0,NONE,0,1,148640,950
Control_TS_4_B,1,test,P,114,3,620,550,P,1,<rshift>,1,1,149641,322
Control_TS_4_B,1,test,P,115,3,620,550,P,1,<rshift>,1,1,150640,549
Control_TS_4_B,1,test,P,116,1,620,350,P,1,<rshift>,1,1,151640,440
Control_TS_4_B,1,test,P,117,2,820,350,P,1,<rshift>,1,1,152640,348
Control_TS_4_B,1,test,P,118,2,820,350,R,0,<rshift>,1,0,153641,396
Control_TS_4_B,1,test,P,119,1,620,350,P,1,<rshift>,1,1,154640,494
Control_TS_4_B,1,test,P,120,4,820,550,P,1,<rshift>,1,1,155640,476
Control_TS_4_B,1,test,P,121,3,620,550,P,1,<rshift>,1,1,156641,438
Control_TS_4_B,1,test,P,122,3,620,550,P,1,<rshift>,1,1,157641,536
Control_TS_4_B,1,test,P,123,4,820,550,P,1,<rshift>,1,1,158641,403
Control_TS_4_B,1,test,P,124,2,820,350,P,1,<rshift>,1,1,159640,437
Control_TS_4_B,1,test,P,125,2,820,350,P,1,<rshift>,1,1,160639,391
Control_TS_4_B,1,test,P,126,4,820,550,P,1,<rshift>,1,1,161641,492
Control_TS_4_B,1,test,P,127,4,820,550,R,0,NONE,0,1,162640,950
Control_TS_4_B,1,test,P,128,2,820,350,P,1,<rshift>,1,1,163640,454
Control_TS_4_B,1,test,P,129,1,620,350,P,1,<rshift>,1,1,164641,563
Control_TS_4_B,1,test,P,130,3,620,550,P,1,<rshift>,1,1,165641,394
Control_TS_4_B,1,test,P,131,3,620,550,R,0,NONE,0,1,166640,950
Control_TS_4_B,1,test,P,132,3,620,550,P,1,<rshift>,1,1,167640,393
Control_TS_4_B,1,test,P,133,4,820,550,P,1,<rshift>,1,1,168641,370
Control_TS_4_B,1,test,P,134,4,820,550,P,1,<rshift>,1,1,169640,387
Control_TS_4_B,1,test,P,135,3,620,550,P,1,<rshift>,1,1,170640,438
Control_TS_4_B,1,test,P,136,3,620,550,R,0,NONE,0,1,171640,950
Control_TS_4_B,1,test,P,137,4,820,550,P,1,<rshift>,1,1,172640,391
Control_TS_4_B,1,test,P,138,2,820,350,P,1,<rshift>,1,1,173641,372
Control_TS_4_B,1,test,P,139,3,620,550,R,0,<rshift>,1,0,174640,373
Control_TS_4_B,1,test,P,140,2,820,350,P,1,<rshift>,1,1,175640,457
Control_TS_4_B,1,test,P,141,2,820,350,P,1,<rshift>,1,1,176640,373
Control_TS_4_B,1,test,P,142,4,820,550,P,1,<rshift>,1,1,177640,368
Control_TS_4_B,1,test,P,143,3,620,550,P,1,<rshift>,1,1,178640,457
Control_TS_4_B,1,test,P,144,2,820,350,R,0,NONE,0,1,179642,950
Control_TS_4_B,1,test,P,145,4,820,550,P,1,<rshift>,1,1,180639,423
Control_TS_4_B,1,test,P,146,4,820,550,R,0,<rshift>,1,0,181640,394
Control_TS_4_B,1,test,P,147,3,620,550,P,1,<rshift>,1,1,182640,467
Control_TS_4_B,1,test,P,148,1,620,350,P,1,<rshift>,1,1,183641,532
Control_TS_4_B,1,test,P,149,4,820,550,P,1,<rshift>,1,1,184639,446
Control_TS_4_B,1,test,P,150,4,820,550,P,1,<rshift>,1,1,185639,385
Control_TS_4_B,1,test,P,151,2,820,350,P,1,<rshift>,1,1,186639,454
Control_TS_4_B,1,test,P,152,1,620,350,P,1,<rshift>,1,1,187639,603
Control_TS_4_B,1,test,P,153,4,820,550,P,1,<rshift>,1,1,188639,471
Control_TS_4_B,1,test,P,154,4,820,550,R,0,NONE,0,1,189639,950
Control_TS_4_B,1,test,P,155,3,620,550,P,1,<rshift>,1,1,190639,360
Control_TS_4_B,1,test,P,156,3,620,550,P,1,<rshift>,1,1,191641,437
Control_TS_4_B,1,test,P,157,2,820,350,P,1,<rshift>,1,1,192639,453
Control_TS_4_B,1,test,P,158,3,620,550,P,1,<rshift>,1,1,193639,393
Control_TS_4_B,1,test,P,159,1,620,350,P,1,<rshift>,1,1,194639,368
Control_TS_4_B,1,test,P,160,3,620,550,R,0,NONE,0,1,195640,950
Control_TS_4_B,1,test,P,161,1,620,350,P,1,<rshift>,1,1,196639,519
Control_TS_4_B,1,test,P,162,3,620,550,R,0,NONE,0,1,197639,950
Control_TS_4_B,1,test,P,163,1,620,350,P,1,<rshift>,1,1,198641,341
Control_TS_4_B,1,test,P,164,1,620,350,P,1,<rshift>,1,1,199639,513
Control_TS_4_B,1,test,P,165,4,820,550,P,1,<rshift>,1,1,200641,433
Control_TS_4_B,1,test,P,166,2,820,350,P,1,<rshift>,1,1,201639,524
Control_TS_4_B,1,test,P,167,2,820,350,P,1,<rshift>,1,1,202639,446
Control_TS_4_B,1,test,P,168,1,620,350,P,1,<rshift>,1,1,203639,427
Control_TS_4_B,1,test,P,169,3,620,550,R,0,NONE,0,1,204642,950
Control_TS_4_B,1,test,P,170,3,620,550,P,1,<rshift>,1,1,205639,404
Control_TS_4_B,1,test,P,171,4,820,550,P,1,<rshift>,1,1,206639,355
Control_TS_4_B,1,test,P,172,2,820,350,P,1,<rshift>,1,1,207641,410
Control_TS_4_B,1,test,P,173,1,620,350,P,1,<rshift>,1,1,208640,385
Control_TS_4_B,1,test,P,174,3,620,550,P,1,<rshift>,1,1,209639,383
Control_TS_4_B,1,test,P,175,1,620,350,R,0,<rshift>,1,0,210641,367
Control_TS_4_B,1,test,P,176,4,820,550,P,1,<rshift>,1,1,211639,499
Control_TS_4_B,1,test,P,177,2,820,350,P,1,<rshift>,1,1,212638,454
Control_TS_4_B,1,test,P,178,4,820,550,P,1,<rshift>,1,1,213640,367
Control_TS_4_B,1,test,P,179,2,820,350,R,0,<rshift>,1,0,214639,375
Control_TS_4_B,1,test,P,180,4,820,550,P,1,<rshift>,1,1,215639,458
Control_TS_4_B,1,test,P,181,4,820,550,P,1,<rshift>,1,1,216640,420
Control_TS_4_B,1,test,P,182,2,820,350,P,1,<rshift>,1,1,217640,559
Control_TS_4_B,1,test,P,183,1,620,350,P,1,<rshift>,1,1,218639,429
Control_TS_4_B,1,test,P,184,4,820,550,R,0,<rshift>,1,0,219639,460
Control_TS_4_B,1,test,P,185,3,620,550,P,1,<rshift>,1,1,220639,365
Control_TS_4_B,1,test,P,186,4,820,550,P,1,<rshift>,1,1,221639,489
Control_TS_4_B,1,test,P,187,2,820,350,P,1,<rshift>,1,1,222641,454
Control_TS_4_B,1,test,P,188,1,620,350,R,0,<rshift>,1,0,223639,364
Control_TS_4_B,1,test,P,189,1,620,350,P,1,<rshift>,1,1,224639,480
Control_TS_4_B,1,test,P,190,1,620,350,P,1,<rshift>,1,1,225639,482
Control_TS_4_B,1,test,P,191,3,620,550,P,1,<rshift>,1,1,226639,550
Control_TS_4_B,1,test,P,192,1,620,350,P,1,<rshift>,1,1,227639,548
Control_TS_4_B,1,test,P,193,2,820,350,P,1,<rshift>,1,1,228641,514
Control_TS_4_B,1,test,P,194,3,620,550,P,1,<rshift>,1,1,229639,459
Control_TS_4_B,1,test,P,195,3,620,550,P,1,<rshift>,1,1,230641,461
Control_TS_4_B,1,test,P,196,4,820,550,P,1,<rshift>,1,1,231639,498
Control_TS_4_B,1,test,P,197,1,620,350,P,1,<rshift>,1,1,232639,439
Control_TS_4_B,1,test,P,198,2,820,350,P,1,<rshift>,1,1,233639,393
Control_TS_4_B,1,test,P,199,3,620,550,P,1,<rshift>,1,1,234639,569
Control_TS_4_B,1,test,P,200,3,620,550,P,1,<rshift>,1,1,235641,486
Control_TS_4_B,1,test,P,201,3,620,550,P,1,<rshift>,1,1,236641,413
Control_TS_4_B,1,test,P,202,1,620,350,P,1,<rshift>,1,1,237639,484
Control_TS_4_B,1,test,P,203,1,620,350,P,1,<rshift>,1,1,238640,457
Control_TS_4_B,1,test,P,204,2,820,350,P,1,<rshift>,1,1,239640,478
Control_TS_4_B,1,test,P,205,4,820,550,R,0,NONE,0,1,240641,950
Control_TS_4_B,1,test,P,206,2,820,350,P,1,<rshift>,1,1,241639,365
Control_TS_4_B,1,test,P,207,1,620,350,P,1,<rshift>,1,1,242639,329
Control_TS_4_B,1,test,P,208,1,620,350,P,1,<rshift>,1,1,243641,433
Control_TS_4_B,1,test,P,209,2,820,350,P,1,<rshift>,1,1,244639,381
Control_TS_4_B,1,test,P,210,3,620,550,P,1,<rshift>,1,1,245641,489
Control_TS_4_B,1,test,P,211,4,820,550,R,0,NONE,0,1,246640,950
Control_TS_4_B,1,test,P,212,2,820,350,P,1,<rshift>,1,1,247639,434
Control_TS_4_B,1,test,P,213,2,820,350,P,1,<rshift>,1,1,248641,396
Control_TS_4_B,1,test,P,214,4,820,550,P,1,<rshift>,1,1,249641,514
Control_TS_4_B,1,test,P,215,1,620,350,P,1,<rshift>,1,1,250641,382
Control_TS_4_B,1,test,P,216,3,620,550,P,1,<rshift>,1,1,251639,364
Control_TS_4_B,1,test,P,217,3,620,550,P,1,<rshift>,1,1,252640,344
Control_TS_4_B,1,test,P,218,4,820,550,P,1,<rshift>,1,1,253641,347
Control_TS_4_B,1,test,P,219,3,620,550,P,1,<rshift>,1,1,254639,338
Control_TS_4_B,1,test,P,220,3,620,550,P,1,<rshift>,1,1,255639,370
Control_TS_4_B,1,test,P,221,1,620,350,P,1,<rshift>,1,1,256641,399
Control_TS_4_B,1,test,P,222,1,620,350,P,1,<rshift>,1,1,257641,337
Control_TS_4_B,1,test,P,223,1,620,350,P,1,<rshift>,1,1,258639,377
Control_TS_4_B,1,test,P,224,3,620,550,P,1,<rshift>,1,1,259639,435
Control_TS_4_B,1,test,P,225,3,620,550,R,0,NONE,0,1,260639,950
Control_TS_4_B,1,test,P,226,4,820,550,R,0,<rshift>,1,0,261639,348
Control_TS_4_B,1,test,P,227,3,620,550,P,1,<rshift>,1,1,262639,392
Control_TS_4_B,1,test,P,228,3,620,550,P,1,<rshift>,1,1,263639,561
Control_TS_4_B,1,test,P,229,2,820,350,P,1,<rshift>,1,1,264640,385
Control_TS_4_B,1,test,P,230,3,620,550,P,1,<rshift>,1,1,265639,396
Control_TS_4_B,1,test,P,231,2,820,350,P,1,<rshift>,1,1,266639,412
Control_TS_4_B,1,test,P,232,4,820,550,R,0,NONE,0,1,267639,950
Control_TS_4_B,1,test,P,233,2,820,350,P,1,<rshift>,1,1,268640,426
Control_TS_4_B,1,test,P,234,4,820,550,P,1,<rshift>,1,1,269639,543
Control_TS_4_B,1,test,P,235,3,620,550,R,0,<rshift>,1,0,270641,355
Control_TS_4_B,1,test,P,236,2,820,350,P,1,<rshift>,1,1,271639,450
Control_TS_4_B,1,test,P,237,3,620,550,P,1,<rshift>,1,1,272641,513
Control_TS_4_B,1,test,P,238,3,620,550,R,0,NONE,0,1,273641,950
Control_TS_4_B,1,test,P,239,4,820,550,P,1,<rshift>,1,1,274639,391
Control_TS_4_B,1,test,P,240,1,620,350,R,0,<rshift>,1,0,275640,420
Control_TS_4_B,1,test,P,241,1,620,350,P,1,<rshift>,1,1,276639,485
Control_TS_4_B,1,test,P,242,3,620,550,P,1,<rshift>,1,1,277639,437
Control_TS_4_B,1,test,P,243,4,820,550,P,1,<rshift>,1,1,278639,446
Control_TS_4_B,1,test,P,244,4,820,550,P,1,<rshift>,1,1,279641,413
Control_TS_4_B,1,test,P,245,3,620,550,R,0,NONE,0,1,280641,950
Control_TS_4_B,1,test,P,246,2,820,350,P,1,<rshift>,1,1,281639,478
Control_TS_4_B,1,test,P,247,3,620,550,P,1,<rshift>,1,1,282641,469
Control_TS_4_B,1,test,P,248,4,820,550,P,1,<rshift>,1,1,283641,456
Control_TS_4_B,1,test,P,249,4,820,550,P,1,<rshift>,1,1,284639,550
Control_TS_4_B,1,test,P,250,1,620,350,P,1,<rshift>,1,1,285640,564
Control_TS_4_B,1,test,P,251,2,820,350,P,1,<rshift>,1,1,286639,402
Control_TS_4_B,1,test,P,252,4,820,550,R,0,<rshift>,1,0,287639,303
Control_TS_4_B,1,test,P,253,4,820,550,P,1,<rshift>,1,1,288639,466
Control_TS_4_B,1,test,P,254,4,820,550,P,1,<rshift>,1,1,289639,600
Control_TS_4_B,1,test,P,255,4,820,550,P,1,<rshift>,1,1,290639,345
Control_TS_4_B,1,test,P,256,4,820,550,P,1,<rshift>,1,1,291639,336
Control_TS_4_B,1,test,P,257,3,620,550,P,1,<rshift>,1,1,292639,425
Control_TS_4_B,1,test,P,258,1,620,350,P,1,<rshift>,1,1,293640,362
Control_TS_4_B,1,test,P,259,4,820,550,P,1,<rshift>,1,1,294641,332
Control_TS_4_B,1,test,P,260,4,820,550,P,1,<rshift>,1,1,295639,485
Control_TS_4_B,1,test,P,261,1,620,350,P,1,<rshift>,1,1,296639,476
Control_TS_4_B,1,test,P,262,4,820,550,P,1,<rshift>,1,1,297640,392
Control_TS_4_B,1,test,P,263,1,620,350,P,1,<rshift>,1,1,298639,370
Control_TS_4_B,1,test,P,264,2,820,350,P,1,<rshift>,1,1,299640,364
Control_TS_4_B,1,test,P,265,3,620,550,P,1,<rshift>,1,1,300640,559
Control_TS_4_B,1,test,P,266,3,620,550,P,1,<rshift>,1,1,301639,366
Control_TS_4_B,1,test,P,267,3,620,550,P,1,<rshift>,1,1,302639,311
Control_TS_4_B,1,test,P,268,3,620,550,P,1,<rshift>,1,1,303640,274
Control_TS_4_B,1,test,P,269,3,620,550,P,1,<rshift>,1,1,304639,420
Control_TS_4_B,1,test,P,270,2,820,350,P,1,<rshift>,1,1,305641,427
Control_TS_4_B,1,test,P,271,2,820,350,R,0,<rshift>,1,0,306639,374
Control_TS_4_B,1,test,P,272,4,820,550,P,1,<rshift>,1,1,307639,553
Control_TS_4_B,1,test,P,273,3,620,550,P,1,<rshift>,1,1,308639,386
Control_TS_4_B,1,test,P,274,2,820,350,P,1,<rshift>,1,1,309641,346
Control_TS_4_B,1,test,P,275,2,820,350,R,0,<rshift>,1,0,310640,425
Control_TS_4_B,1,test,P,276,1,620,350,R,0,<rshift>,1,0,311639,364
Control_TS_4_B,1,test,P,277,1,620,350,R,0,NONE,0,1,312639,950
Control_TS_4_B,1,test,P,278,1,620,350,P,1,<rshift>,1,1,313641,638
Control_TS_4_B,1,test,P,279,1,620,350,P,1,<rshift>,1,1,314640,385
Control_TS_4_B,1,test,P,280,1,620,350,P,1,<rshift>,1,1,315639,400
Control_TS_4_B,1,test,P,281,3,620,550,P,1,<rshift>,1,1,316641,389
Control_TS_4_B,1,test,P,282,2,820,350,P,1,<rshift>,1,1,317640,465
Control_TS_4_B,1,test,P,283,1,620,350,P,1,<rshift>,1,1,318639,460
Control_TS_4_B,1,test,P,284,4,820,550,P,1,<rshift>,1,1,319641,407
Control_TS_4_B,1,test,P,285,3,620,550,P,1,<rshift>,1,1,320641,389
Control_TS_4_B,1,test,P,286,3,620,550,P,1,<rshift>,1,1,321640,419
Control_TS_4_B,1,test,P,287,1,620,350,R,0,NONE,0,1,322639,950
Control_TS_4_B,1,test,P,288,2,820,350,P,1,<rshift>,1,1,323640,439
Control_TS_4_B,1,test,P,289,1,620,350,R,0,NONE,0,1,324641,950
Control_TS_4_B,1,test,P,290,1,620,350,P,1,<rshift>,1,1,325639,412
Control_TS_4_B,1,test,P,291,3,620,550,P,1,<rshift>,1,1,326640,536
Control_TS_4_B,1,test,P,292,4,820,550,R,0,NONE,0,1,327641,950
Control_TS_4_B,1,test,P,293,1,620,350,R,0,<rshift>,1,0,328639,439
Control_TS_4_B,1,test,P,294,3,620,550,P,1,<rshift>,1,1,329641,421
Control_TS_4_B,1,test,P,295,4,820,550,P,1,<rshift>,1,1,330640,417
Control_TS_4_B,1,test,P,296,1,620,350,P,1,<rshift>,1,1,331640,439
Control_TS_4_B,1,test,P,297,1,620,350,R,0,NONE,0,1,332639,950
Control_TS_4_B,1,test,P,298,3,620,550,R,0,NONE,0,1,333639,950
Control_TS_4_B,1,test,P,299,2,820,350,P,1,<rshift>,1,1,334641,569
Control_TS_4_B,1,test,P,300,1,620,350,R,0,NONE,0,1,335639,950
Control_TS_4_B,2,practice,R,1,4,820,550,R,1,NONE,0,0,352208,951
Control_TS_4_B,2,practice,R,2,3,620,550,R,1,<rshift>,1,1,354174,398
Control_TS_4_B,2,practice,R,3,2,820,350,R,1,<rshift>,1,1,354580,516
Control_TS_4_B,2,practice,R,4,4,820,550,R,1,<rshift>,1,1,355207,449
Control_TS_4_B,2,practice,R,5,2,820,350,P,0,<rshift>,1,0,356207,362
Control_TS_4_B,2,practice,R,6,3,620,550,P,0,<rshift>,1,0,357589,393
Control_TS_4_B,2,practice,R,7,4,820,550,R,1,<rshift>,1,1,359005,483
Control_TS_4_B,2,practice,R,8,1,620,350,R,1,<rshift>,1,1,359497,559
Control_TS_4_B,2,practice,R,9,2,820,350,R,1,<rshift>,1,1,360207,438
Control_TS_4_B,2,practice,R,10,2,820,350,R,1,<rshift>,1,1,361207,550
Control_TS_4_B,3,test,R,1,2,820,350,R,1,<rshift>,1,1,370986,663
Control_TS_4_B,3,test,R,2,1,620,350,R,1,<rshift>,1,1,371985,366
Control_TS_4_B,3,test,R,3,3,620,550,R,1,<rshift>,1,1,372986,442
Control_TS_4_B,3,test,R,4,4,820,550,R,1,<rshift>,1,1,373985,367
Control_TS_4_B,3,test,R,5,4,820,550,P,0,NONE,0,1,374985,950
Control_TS_4_B,3,test,R,6,1,620,350,R,1,<rshift>,1,1,375985,357
Control_TS_4_B,3,test,R,7,3,620,550,R,1,<rshift>,1,1,376985,344
Control_TS_4_B,3,test,R,8,3,620,550,R,1,<rshift>,1,1,377985,371
Control_TS_4_B,3,test,R,9,2,820,350,R,1,<rshift>,1,1,378987,505
Control_TS_4_B,3,test,R,10,2,820,350,R,1,<rshift>,1,1,379985,356
Control_TS_4_B,3,test,R,11,2,820,350,R,1,<rshift>,1,1,380985,352
Control_TS_4_B,3,test,R,12,4,820,550,P,0,NONE,0,1,381985,950
Control_TS_4_B,3,test,R,13,2,820,350,R,1,<rshift>,1,1,382985,359
Control_TS_4_B,3,test,R,14,1,620,350,R,1,<rshift>,1,1,383985,326
Control_TS_4_B,3,test,R,15,4,820,550,P,0,NONE,0,1,384985,950
Control_TS_4_B,3,test,R,16,1,620,350,R,1,<rshift>,1,1,385985,313
Control_TS_4_B,3,test,R,17,1,620,350,R,1,<rshift>,1,1,386985,619
Control_TS_4_B,3,test,R,18,3,620,550,R,1,<rshift>,1,1,387985,393
Control_TS_4_B,3,test,R,19,1,620,350,R,1,<rshift>,1,1,388985,358
Control_TS_4_B,3,test,R,20,3,620,550,P,0,<rshift>,1,0,389985,402
Control_TS_4_B,3,test,R,21,3,620,550,R,1,<rshift>,1,1,390985,393
Control_TS_4_B,3,test,R,22,1,620,350,P,0,<rshift>,1,0,391985,374
Control_TS_4_B,3,test,R,23,4,820,550,P,0,NONE,0,1,392986,950
Control_TS_4_B,3,test,R,24,2,820,350,R,1,<rshift>,1,1,393986,341
Control_TS_4_B,3,test,R,25,1,620,350,R,1,<rshift>,1,1,394987,443
Control_TS_4_B,3,test,R,26,3,620,550,R,1,<rshift>,1,1,395985,391
Control_TS_4_B,3,test,R,27,4,820,550,R,1,<rshift>,1,1,396987,387
Control_TS_4_B,3,test,R,28,2,820,350,R,1,<rshift>,1,1,397985,384
Control_TS_4_B,3,test,R,29,3,620,550,R,1,<rshift>,1,1,398987,409
Control_TS_4_B,3,test,R,30,2,820,350,R,1,<rshift>,1,1,399987,418
Control_TS_4_B,3,test,R,31,2,820,350,R,1,<rshift>,1,1,400985,381
Control_TS_4_B,3,test,R,32,1,620,350,R,1,<rshift>,1,1,401987,403
Control_TS_4_B,3,test,R,33,2,820,350,R,1,<rshift>,1,1,402985,364
Control_TS_4_B,3,test,R,34,1,620,350,R,1,<rshift>,1,1,403985,394
Control_TS_4_B,3,test,R,35,4,820,550,R,1,<rshift>,1,1,404987,474
Control_TS_4_B,3,test,R,36,4,820,550,P,0,NONE,0,1,405987,950
Control_TS_4_B,3,test,R,37,3,620,550,R,1,<rshift>,1,1,406985,461
Control_TS_4_B,3,test,R,38,3,620,550,P,0,NONE,0,1,407985,950
Control_TS_4_B,3,test,R,39,2,820,350,R,1,<rshift>,1,1,408985,468
Control_TS_4_B,3,test,R,40,4,820,550,R,1,<rshift>,1,1,409987,367
Control_TS_4_B,3,test,R,41,1,620,350,R,1,<rshift>,1,1,410985,370
Control_TS_4_B,3,test,R,42,2,820,350,P,0,NONE,0,1,411987,950
Control_TS_4_B,3,test,R,43,2,820,350,P,0,NONE,0,1,412985,950
Control_TS_4_B,3,test,R,44,1,620,350,P,0,NONE,0,1,413985,950
Control_TS_4_B,3,test,R,45,3,620,550,R,1,<rshift>,1,1,414985,385
Control_TS_4_B,3,test,R,46,2,820,350,R,1,<rshift>,1,1,415987,457
Control_TS_4_B,3,test,R,47,4,820,550,R,1,<rshift>,1,1,416987,373
Control_TS_4_B,3,test,R,48,4,820,550,R,1,<rshift>,1,1,417986,433
Control_TS_4_B,3,test,R,49,3,620,550,R,1,<rshift>,1,1,418987,389
Control_TS_4_B,3,test,R,50,4,820,550,R,1,<rshift>,1,1,419985,366
Control_TS_4_B,3,test,R,51,3,620,550,P,0,<rshift>,1,0,420985,337
Control_TS_4_B,3,test,R,52,2,820,350,R,1,<rshift>,1,1,421987,324
Control_TS_4_B,3,test,R,53,4,820,550,R,1,<rshift>,1,1,422985,319
Control_TS_4_B,3,test,R,54,1,620,350,R,1,<rshift>,1,1,423985,323
Control_TS_4_B,3,test,R,55,2,820,350,R,1,<rshift>,1,1,424985,324
Control_TS_4_B,3,test,R,56,2,820,350,R,1,<rshift>,1,1,425985,343
Control_TS_4_B,3,test,R,57,4,820,550,R,1,<rshift>,1,1,426985,510
Control_TS_4_B,3,test,R,58,1,620,350,R,1,<rshift>,1,1,427985,329
Control_TS_4_B,3,test,R,59,1,620,350,P,0,NONE,0,1,428985,951
Control_TS_4_B,3,test,R,60,2,820,350,R,1,<rshift>,1,1,429986,402
Control_TS_4_B,3,test,R,61,3,620,550,P,0,NONE,0,1,430987,950
Control_TS_4_B,3,test,R,62,4,820,550,P,0,<rshift>,1,0,431985,269
Control_TS_4_B,3,test,R,63,3,620,550,R,1,<rshift>,1,1,432985,466
Control_TS_4_B,3,test,R,64,1,620,350,R,1,<rshift>,1,1,433985,359
Control_TS_4_B,3,test,R,65,2,820,350,R,1,<rshift>,1,1,434985,319
Control_TS_4_B,3,test,R,66,1,620,350,R,1,<rshift>,1,1,435986,455
Control_TS_4_B,3,test,R,67,1,620,350,R,1,<rshift>,1,1,436987,359
Control_TS_4_B,3,test,R,68,4,820,550,R,1,<rshift>,1,1,437987,437
Control_TS_4_B,3,test,R,69,3,620,550,P,0,<rshift>,1,0,438987,375
Control_TS_4_B,3,test,R,70,4,820,550,R,1,<rshift>,1,1,439985,504
Control_TS_4_B,3,test,R,71,4,820,550,R,1,<rshift>,1,1,440985,377
Control_TS_4_B,3,test,R,72,1,620,350,R,1,<rshift>,1,1,441985,380
Control_TS_4_B,3,test,R,73,1,620,350,R,1,<rshift>,1,1,442985,356
Control_TS_4_B,3,test,R,74,2,820,350,R,1,<rshift>,1,1,443985,364
Control_TS_4_B,3,test,R,75,1,620,350,R,1,<rshift>,1,1,444985,326
Control_TS_4_B,3,test,R,76,3,620,550,R,1,<rshift>,1,1,445985,410
Control_TS_4_B,3,test,R,77,2,820,350,R,1,<rshift>,1,1,446985,336
Control_TS_4_B,3,test,R,78,2,820,350,R,1,<rshift>,1,1,447985,354
Control_TS_4_B,3,test,R,79,4,820,550,R,1,<rshift>,1,1,448985,364
Control_TS_4_B,3,test,R,80,3,620,550,R,1,<rshift>,1,1,449985,407
Control_TS_4_B,3,test,R,81,2,820,350,R,1,<rshift>,1,1,450985,340
Control_TS_4_B,3,test,R,82,4,820,550,R,1,<rshift>,1,1,451986,453
Control_TS_4_B,3,test,R,83,2,820,350,R,1,<rshift>,1,1,452986,346
Control_TS_4_B,3,test,R,84,4,820,550,R,1,<rshift>,1,1,453985,328
Control_TS_4_B,3,test,R,85,2,820,350,R,1,<rshift>,1,1,454985,320
Control_TS_4_B,3,test,R,86,3,620,550,R,1,<rshift>,1,1,455985,426
Control_TS_4_B,3,test,R,87,3,620,550,P,0,NONE,0,1,456985,950
Control_TS_4_B,3,test,R,88,4,820,550,R,1,<rshift>,1,1,457985,379
Control_TS_4_B,3,test,R,89,4,820,550,R,1,<rshift>,1,1,458987,393
Control_TS_4_B,3,test,R,90,2,820,350,R,1,<rshift>,1,1,459985,268
Control_TS_4_B,3,test,R,91,4,820,550,R,1,<rshift>,1,1,460985,337
Control_TS_4_B,3,test,R,92,2,820,350,R,1,<rshift>,1,1,461985,362
Control_TS_4_B,3,test,R,93,1,620,350,R,1,<rshift>,1,1,462985,407
Control_TS_4_B,3,test,R,94,2,820,350,R,1,<rshift>,1,1,463985,370
Control_TS_4_B,3,test,R,95,3,620,550,R,1,<rshift>,1,1,464985,359
Control_TS_4_B,3,test,R,96,4,820,550,R,1,<rshift>,1,1,465987,357
Control_TS_4_B,3,test,R,97,1,620,350,P,0,<rshift>,1,0,466985,280
Control_TS_4_B,3,test,R,98,2,820,350,R,1,<rshift>,1,1,467985,328
Control_TS_4_B,3,test,R,99,3,620,550,R,1,<rshift>,1,1,468985,340
Control_TS_4_B,3,test,R,100,4,820,550,R,1,<rshift>,1,1,469987,336
Control_TS_4_B,3,test,R,101,1,620,350,P,0,NONE,0,1,470986,951
Control_TS_4_B,3,test,R,102,4,820,550,R,1,<rshift>,1,1,471985,383
Control_TS_4_B,3,test,R,103,2,820,350,R,1,<rshift>,1,1,472985,306
Control_TS_4_B,3,test,R,104,2,820,350,R,1,<rshift>,1,1,473985,349
Control_TS_4_B,3,test,R,105,1,620,350,R,1,<rshift>,1,1,474985,327
Control_TS_4_B,3,test,R,106,4,820,550,R,1,<rshift>,1,1,475986,338
Control_TS_4_B,3,test,R,107,3,620,550,R,1,<rshift>,1,1,476987,343
Control_TS_4_B,3,test,R,108,3,620,550,R,1,<rshift>,1,1,477985,344
Control_TS_4_B,3,test,R,109,3,620,550,R,1,<rshift>,1,1,478985,296
Control_TS_4_B,3,test,R,110,3,620,550,R,1,<rshift>,1,1,479985,404
Control_TS_4_B,3,test,R,111,2,820,350,R,1,<rshift>,1,1,480985,348
Control_TS_4_B,3,test,R,112,2,820,350,R,1,<rshift>,1,1,481985,358
Control_TS_4_B,3,test,R,113,1,620,350,R,1,<rshift>,1,1,482987,402
Control_TS_4_B,3,test,R,114,3,620,550,P,0,NONE,0,1,483987,950
Control_TS_4_B,3,test,R,115,3,620,550,R,1,<rshift>,1,1,484986,404
Control_TS_4_B,3,test,R,116,1,620,350,R,1,<rshift>,1,1,485985,312
Control_TS_4_B,3,test,R,117,3,620,550,P,0,<rshift>,1,0,486985,329
Control_TS_4_B,3,test,R,118,4,820,550,P,0,<rshift>,1,0,487985,384
Control_TS_4_B,3,test,R,119,4,820,550,R,1,<rshift>,1,1,488985,756
Control_TS_4_B,3,test,R,120,3,620,550,P,0,NONE,0,1,489985,950
Control_TS_4_B,3,test,R,121,1,620,350,R,1,<rshift>,1,1,490985,410
Control_TS_4_B,3,test,R,122,2,820,350,R,1,<rshift>,1,1,491987,293
Control_TS_4_B,3,test,R,123,3,620,550,R,1,<rshift>,1,1,492985,406
Control_TS_4_B,3,test,R,124,3,620,550,R,1,<rshift>,1,1,493985,378
Control_TS_4_B,3,test,R,125,3,620,550,R,1,<rshift>,1,1,494985,471
Control_TS_4_B,3,test,R,126,1,620,350,P,0,<rshift>,1,0,495986,321
Control_TS_4_B,3,test,R,127,4,820,550,R,1,<rshift>,1,1,496986,342
Control_TS_4_B,3,test,R,128,3,620,550,R,1,<rshift>,1,1,497987,336
Control_TS_4_B,3,test,R,129,1,620,350,P,0,NONE,0,1,498986,950
Control_TS_4_B,3,test,R,130,1,620,350,R,1,NONE,0,0,499985,950
Control_TS_4_B,3,test,R,131,2,820,350,R,1,<rshift>,1,1,500985,314
Control_TS_4_B,3,test,R,132,4,820,550,R,1,<rshift>,1,1,501986,314
Control_TS_4_B,3,test,R,133,4,820,550,R,1,<rshift>,1,1,502985,349
Control_TS_4_B,3,test,R,134,3,620,550,R,1,<rshift>,1,1,503987,346
Control_TS_4_B,3,test,R,135,3,620,550,R,1,<rshift>,1,1,504986,346
Control_TS_4_B,3,test,R,136,1,620,350,R,1,<rshift>,1,1,505985,367
Control_TS_4_B,3,test,R,137,2,820,350,R,1,<rshift>,1,1,506986,302
Control_TS_4_B,3,test,R,138,4,820,550,P,0,<rshift>,1,0,507985,334
Control_TS_4_B,3,test,R,139,4,820,550,P,0,NONE,0,1,508987,950
Control_TS_4_B,3,test,R,140,1,620,350,R,1,<rshift>,1,1,509987,459
Control_TS_4_B,3,test,R,141,3,620,550,R,1,<rshift>,1,1,510987,364
Control_TS_4_B,3,test,R,142,3,620,550,P,0,<rshift>,1,0,511986,387
Control_TS_4_B,3,test,R,143,3,620,550,R,1,<rshift>,1,1,512985,602
Control_TS_4_B,3,test,R,144,4,820,550,P,0,<rshift>,1,0,513985,335
Control_TS_4_B,3,test,R,145,2,820,350,R,1,NONE,0,0,514986,950
Control_TS_4_B,3,test,R,146,3,620,550,R,1,<rshift>,1,1,515986,317
Control_TS_4_B,3,test,R,147,3,620,550,R,1,<rshift>,1,1,516986,493
Control_TS_4_B,3,test,R,148,2,820,350,R,1,<rshift>,1,1,517986,326
Control_TS_4_B,3,test,R,149,1,620,350,R,1,<rshift>,1,1,518986,376
Control_TS_4_B,3,test,R,150,3,620,550,R,1,<rshift>,1,1,519986,407
Control_TS_4_B,3,test,R,151,3,620,550,R,1,<rshift>,1,1,520985,394
Control_TS_4_B,3,test,R,152,4,820,550,R,1,<rshift>,1,1,521985,378
Control_TS_4_B,3,test,R,153,2,820,350,R,1,<rshift>,1,1,522985,361
Control_TS_4_B,3,test,R,154,1,620,350,R,1,<rshift>,1,1,523986,303
Control_TS_4_B,3,test,R,155,1,620,350,R,1,<rshift>,1,1,524986,383
Control_TS_4_B,3,test,R,156,3,620,550,R,1,<rshift>,1,1,525985,364
Control_TS_4_B,3,test,R,157,3,620,550,R,1,<rshift>,1,1,526985,336
Control_TS_4_B,3,test,R,158,1,620,350,R,1,<rshift>,1,1,527985,346
Control_TS_4_B,3,test,R,159,1,620,350,R,1,<rshift>,1,1,528985,350
Control_TS_4_B,3,test,R,160,2,820,350,P,0,<rshift>,1,0,529985,352
Control_TS_4_B,3,test,R,161,4,820,550,R,1,<rshift>,1,1,530987,390
Control_TS_4_B,3,test,R,162,1,620,350,R,1,<rshift>,1,1,531985,300
Control_TS_4_B,3,test,R,163,4,820,550,R,1,<rshift>,1,1,532987,351
Control_TS_4_B,3,test,R,164,2,820,350,P,0,NONE,0,1,533985,950
Control_TS_4_B,3,test,R,165,1,620,350,R,1,<rshift>,1,1,534985,312
Control_TS_4_B,3,test,R,166,1,620,350,P,0,NONE,0,1,535987,950
Control_TS_4_B,3,test,R,167,2,820,350,R,1,<rshift>,1,1,536985,275
Control_TS_4_B,3,test,R,168,2,820,350,P,0,NONE,0,1,537985,950
Control_TS_4_B,3,test,R,169,1,620,350,R,1,<rshift>,1,1,538985,344
Control_TS_4_B,3,test,R,170,1,620,350,R,1,<rshift>,1,1,539985,635
Control_TS_4_B,3,test,R,171,2,820,350,R,1,<rshift>,1,1,540985,436
Control_TS_4_B,3,test,R,172,3,620,550,R,1,<rshift>,1,1,541985,454
Control_TS_4_B,3,test,R,173,3,620,550,P,0,NONE,0,1,542985,950
Control_TS_4_B,3,test,R,174,4,820,550,R,1,<rshift>,1,1,543985,363
Control_TS_4_B,3,test,R,175,1,620,350,R,1,<rshift>,1,1,544985,366
Control_TS_4_B,3,test,R,176,4,820,550,R,1,<rshift>,1,1,545985,377
Control_TS_4_B,3,test,R,177,3,620,550,R,1,<rshift>,1,1,546985,380
Control_TS_4_B,3,test,R,178,1,620,350,R,1,<rshift>,1,1,547985,311
Control_TS_4_B,3,test,R,179,4,820,550,R,1,<rshift>,1,1,548985,322
Control_TS_4_B,3,test,R,180,1,620,350,R,1,<rshift>,1,1,549985,367
Control_TS_4_B,3,test,R,181,1,620,350,R,1,<rshift>,1,1,550985,514
Control_TS_4_B,3,test,R,182,2,820,350,R,1,<rshift>,1,1,551985,372
Control_TS_4_B,3,test,R,183,2,820,350,R,1,<rshift>,1,1,552986,335
Control_TS_4_B,3,test,R,184,3,620,550,R,1,<rshift>,1,1,553986,469
Control_TS_4_B,3,test,R,185,2,820,350,R,1,<rshift>,1,1,554986,281
Control_TS_4_B,3,test,R,186,1,620,350,R,1,<rshift>,1,1,555985,295
Control_TS_4_B,3,test,R,187,3,620,550,R,1,<rshift>,1,1,556985,307
Control_TS_4_B,3,test,R,188,1,620,350,P,0,<rshift>,1,0,557987,333
Control_TS_4_B,3,test,R,189,1,620,350,R,1,<rshift>,1,1,558985,326
Control_TS_4_B,3,test,R,190,4,820,550,R,1,<rshift>,1,1,559985,303
Control_TS_4_B,3,test,R,191,2,820,350,R,1,<rshift>,1,1,560987,315
Control_TS_4_B,3,test,R,192,4,820,550,R,1,<rshift>,1,1,561985,350
Control_TS_4_B,3,test,R,193,3,620,550,R,1,<rshift>,1,1,562985,315
Control_TS_4_B,3,test,R,194,3,620,550,R,1,<rshift>,1,1,563985,344
Control_TS_4_B,3,test,R,195,4,820,550,R,1,<rshift>,1,1,564985,311
Control_TS_4_B,3,test,R,196,2,820,350,R,1,<rshift>,1,1,565985,317
Control_TS_4_B,3,test,R,197,2,820,350,R,1,<rshift>,1,1,566986,325
Control_TS_4_B,3,test,R,198,1,620,350,R,1,<rshift>,1,1,567985,303
Control_TS_4_B,3,test,R,199,2,820,350,R,1,<rshift>,1,1,568986,298
Control_TS_4_B,3,test,R,200,2,820,350,R,1,<rshift>,1,1,569986,299
Control_TS_4_B,3,test,R,201,1,620,350,P,0,<rshift>,1,0,570985,249
Control_TS_4_B,3,test,R,202,4,820,550,P,0,<rshift>,1,0,571986,66
Control_TS_4_B,3,test,R,203,2,820,350,R,1,<rshift>,1,1,572985,323
Control_TS_4_B,3,test,R,204,1,620,350,R,1,<rshift>,1,1,573985,378
Control_TS_4_B,3,test,R,205,2,820,350,R,1,<rshift>,1,1,574986,337
Control_TS_4_B,3,test,R,206,3,620,550,R,1,<rshift>,1,1,575985,270
Control_TS_4_B,3,test,R,207,3,620,550,P,0,<rshift>,1,0,576985,385
Control_TS_4_B,3,test,R,208,3,620,550,R,1,<rshift>,1,1,577987,346
Control_TS_4_B,3,test,R,209,1,620,350,P,0,NONE,0,1,578985,950
Control_TS_4_B,3,test,R,210,2,820,350,R,1,<rshift>,1,1,579985,338
Control_TS_4_B,3,test,R,211,2,820,350,R,1,<rshift>,1,1,580985,323
Control_TS_4_B,3,test,R,212,4,820,550,R,1,<rshift>,1,1,581985,343
Control_TS_4_B,3,test,R,213,2,820,350,P,0,<rshift>,1,0,582985,318
Control_TS_4_B,3,test,R,214,3,620,550,P,0,<rshift>,1,0,583985,312
Control_TS_4_B,3,test,R,215,3,620,550,R,1,NONE,0,0,584985,950
Control_TS_4_B,3,test,R,216,2,820,350,R,1,<rshift>,1,1,585987,311
Control_TS_4_B,3,test,R,217,3,620,550,R,1,<rshift>,1,1,586986,316
Control_TS_4_B,3,test,R,218,1,620,350,R,1,<rshift>,1,1,587985,432
Control_TS_4_B,3,test,R,219,2,820,350,R,1,<rshift>,1,1,588985,332
Control_TS_4_B,3,test,R,220,1,620,350,R,1,<rshift>,1,1,589986,315
Control_TS_4_B,3,test,R,221,1,620,350,R,1,<rshift>,1,1,590985,359
Control_TS_4_B,3,test,R,222,3,620,550,R,1,<rshift>,1,1,591985,339
Control_TS_4_B,3,test,R,223,3,620,550,R,1,<rshift>,1,1,592987,396
Control_TS_4_B,3,test,R,224,4,820,550,P,0,<rshift>,1,0,593987,388
Control_TS_4_B,3,test,R,225,1,620,350,R,1,<rshift>,1,1,594985,508
Control_TS_4_B,3,test,R,226,4,820,550,P,0,<rshift>,1,0,595987,371
Control_TS_4_B,3,test,R,227,3,620,550,R,1,<rshift>,1,1,596985,607
Control_TS_4_B,3,test,R,228,2,820,350,R,1,<rshift>,1,1,597985,401
Control_TS_4_B,3,test,R,229,1,620,350,R,1,<rshift>,1,1,598985,321
Control_TS_4_B,3,test,R,230,3,620,550,R,1,<rshift>,1,1,599985,329
Control_TS_4_B,3,test,R,231,4,820,550,R,1,<rshift>,1,1,600985,436
Control_TS_4_B,3,test,R,232,1,620,350,R,1,<rshift>,1,1,601987,398
Control_TS_4_B,3,test,R,233,2,820,350,R,1,<rshift>,1,1,602987,350
Control_TS_4_B,3,test,R,234,3,620,550,R,1,<rshift>,1,1,603985,392
Control_TS_4_B,3,test,R,235,1,620,350,R,1,<rshift>,1,1,604985,505
Control_TS_4_B,3,test,R,236,4,820,550,P,0,NONE,0,1,605985,950
Control_TS_4_B,3,test,R,237,3,620,550,P,0,<rshift>,1,0,606985,358
Control_TS_4_B,3,test,R,238,2,820,350,R,1,<rshift>,1,1,607986,356
Control_TS_4_B,3,test,R,239,3,620,550,R,1,<rshift>,1,1,608985,528
Control_TS_4_B,3,test,R,240,1,620,350,R,1,<rshift>,1,1,609985,378
Control_TS_4_B,3,test,R,241,1,620,350,R,1,<rshift>,1,1,610987,420
Control_TS_4_B,3,test,R,242,3,620,550,R,1,<rshift>,1,1,611987,580
Control_TS_4_B,3,test,R,243,4,820,550,R,1,<rshift>,1,1,612985,441
Control_TS_4_B,3,test,R,244,4,820,550,R,1,<rshift>,1,1,613987,375
Control_TS_4_B,3,test,R,245,4,820,550,P,0,<rshift>,1,0,614985,354
Control_TS_4_B,3,test,R,246,1,620,350,R,1,<rshift>,1,1,615985,366
Control_TS_4_B,3,test,R,247,3,620,550,R,1,<rshift>,1,1,616985,376
Control_TS_4_B,3,test,R,248,2,820,350,R,1,<rshift>,1,1,617985,384
Control_TS_4_B,3,test,R,249,3,620,550,R,1,<rshift>,1,1,618985,374
Control_TS_4_B,3,test,R,250,3,620,550,P,0,<rshift>,1,0,619985,374
Control_TS_4_B,3,test,R,251,4,820,550,R,1,<rshift>,1,1,620985,383
Control_TS_4_B,3,test,R,252,3,620,550,P,0,<rshift>,1,0,621987,455
Control_TS_4_B,3,test,R,253,2,820,350,P,0,NONE,0,1,622985,950
Control_TS_4_B,3,test,R,254,2,820,350,R,1,NONE,0,0,623986,950
Control_TS_4_B,3,test,R,255,2,820,350,R,1,<rshift>,1,1,624985,519
Control_TS_4_B,3,test,R,256,1,620,350,R,1,<rshift>,1,1,625987,387
Control_TS_4_B,3,test,R,257,3,620,550,R,1,<rshift>,1,1,626987,347
Control_TS_4_B,3,test,R,258,3,620,550,R,1,<rshift>,1,1,627986,378
Control_TS_4_B,3,test,R,259,1,620,350,P,0,<rshift>,1,0,628986,453
Control_TS_4_B,3,test,R,260,2,820,350,R,1,<rshift>,1,1,629987,439
Control_TS_4_B,3,test,R,261,2,820,350,R,1,<rshift>,1,1,630985,382
Control_TS_4_B,3,test,R,262,4,820,550,R,1,<rshift>,1,1,631985,751
Control_TS_4_B,3,test,R,263,1,620,350,R,1,<rshift>,1,1,632985,329
Control_TS_4_B,3,test,R,264,3,620,550,R,1,<rshift>,1,1,633985,362
Control_TS_4_B,3,test,R,265,1,620,350,P,0,NONE,0,1,634985,950
Control_TS_4_B,3,test,R,266,4,820,550,P,0,<rshift>,1,0,635987,527
Control_TS_4_B,3,test,R,267,2,820,350,P,0,<rshift>,1,0,636985,449
Control_TS_4_B,3,test,R,268,3,620,550,P,0,NONE,0,1,637986,950
Control_TS_4_B,3,test,R,269,2,820,350,R,1,<rshift>,1,1,638985,675
Control_TS_4_B,3,test,R,270,1,620,350,R,1,<rshift>,1,1,639985,371
Control_TS_4_B,3,test,R,271,3,620,550,R,1,<rshift>,1,1,640985,484
Control_TS_4_B,3,test,R,272,3,620,550,R,1,NONE,0,0,641985,950
Control_TS_4_B,3,test,R,273,1,620,350,R,1,<rshift>,1,1,642985,293
Control_TS_4_B,3,test,R,274,3,620,550,R,1,<rshift>,1,1,643987,416
Control_TS_4_B,3,test,R,275,4,820,550,R,1,<rshift>,1,1,644986,371
Control_TS_4_B,3,test,R,276,4,820,550,R,1,<rshift>,1,1,645985,390
Control_TS_4_B,3,test,R,277,2,820,350,R,1,<rshift>,1,1,646985,336
Control_TS_4_B,3,test,R,278,2,820,350,P,0,<rshift>,1,0,647985,346
Control_TS_4_B,3,test,R,279,2,820,350,P,0,NONE,0,1,648987,950
Control_TS_4_B,3,test,R,280,4,820,550,R,1,<rshift>,1,1,649985,373
Control_TS_4_B,3,test,R,281,4,820,550,R,1,<rshift>,1,1,650985,382
Control_TS_4_B,3,test,R,282,4,820,550,R,1,<rshift>,1,1,651985,472
Control_TS_4_B,3,test,R,283,3,620,550,R,1,<rshift>,1,1,652985,377
Control_TS_4_B,3,test,R,284,3,620,550,R,1,<rshift>,1,1,653986,386
Control_TS_4_B,3,test,R,285,1,620,350,R,1,<rshift>,1,1,654986,340
Control_TS_4_B,3,test,R,286,2,820,350,R,1,<rshift>,1,1,655985,390
Control_TS_4_B,3,test,R,287,3,620,550,R,1,<rshift>,1,1,656987,356
Control_TS_4_B,3,test,R,288,1,620,350,R,1,<rshift>,1,1,657985,419
Control_TS_4_B,3,test,R,289,2,820,350,R,1,<rshift>,1,1,658985,347
Control_TS_4_B,3,test,R,290,1,620,350,R,1,<rshift>,1,1,659985,453
Control_TS_4_B,3,test,R,291,3,620,550,P,0,NONE,0,1,660985,950
Control_TS_4_B,3,test,R,292,3,620,550,P,0,NONE,0,1,661985,950
Control_TS_4_B,3,test,R,293,3,620,550,R,1,<rshift>,1,1,662985,558
Control_TS_4_B,3,test,R,294,2,820,350,P,0,NONE,0,1,663985,950
Control_TS_4_B,3,test,R,295,1,620,350,R,1,<rshift>,1,1,664985,390
Control_TS_4_B,3,test,R,296,1,620,350,R,1,<rshift>,1,1,665985,388
Control_TS_4_B,3,test,R,297,1,620,350,R,1,<rshift>,1,1,666986,334
Control_TS_4_B,3,test,R,298,1,620,350,P,0,NONE,0,1,667986,950
Control_TS_4_B,3,test,R,299,1,620,350,R,1,<rshift>,1,1,668985,404
Control_TS_4_B,3,test,R,300,3,620,550,R,1,<rshift>,1,1,669985,386
