subnum,block,type,correctresponse,trial,choice,x,y,stim,present,response,responded,corr,starttime,rt
Control_TS_22_A,0,practice,P,1,2,820,350,R,0,<rshift>,1,0,8698,550
Control_TS_22_A,0,practice,P,2,4,820,550,R,0,NONE,0,1,10258,950
Control_TS_22_A,0,practice,P,3,1,620,350,P,1,<rshift>,1,1,11211,529
Control_TS_22_A,0,practice,P,4,3,620,550,P,1,<rshift>,1,1,11743,558
Control_TS_22_A,0,practice,P,5,3,620,550,P,1,<rshift>,1,1,12695,378
Control_TS_22_A,0,practice,P,6,3,620,550,P,1,<rshift>,1,1,13697,418
Control_TS_22_A,0,practice,P,7,2,820,350,P,1,<rshift>,1,1,14695,368
Control_TS_22_A,0,practice,P,8,3,620,550,P,1,<rshift>,1,1,15695,339
Control_TS_22_A,0,practice,P,9,1,620,350,P,1,<rshift>,1,1,16696,317
Control_TS_22_A,0,practice,P,10,1,620,350,P,1,<rshift>,1,1,17698,346
Control_TS_22_A,1,test,P,1,1,620,350,P,1,<rshift>,1,1,23336,471
Control_TS_22_A,1,test,P,2,1,620,350,P,1,<rshift>,1,1,24335,363
Control_TS_22_A,1,test,P,3,1,620,350,P,1,<rshift>,1,1,25335,322
Control_TS_22_A,1,test,P,4,3,620,550,P,1,<rshift>,1,1,26337,275
Control_TS_22_A,1,test,P,5,1,620,350,P,1,<rshift>,1,1,27334,286
Control_TS_22_A,1,test,P,6,2,820,350,P,1,<rshift>,1,1,28335,278
Control_TS_22_A,1,test,P,7,1,620,350,R,0,<rshift>,1,0,29335,232
Control_TS_22_A,1,test,P,8,4,820,550,P,1,<rshift>,1,1,30335,56
Control_TS_22_A,1,test,P,9,1,620,350,R,0,<rshift>,1,0,31337,350
Control_TS_22_A,1,test,P,10,3,620,550,P,1,<rshift>,1,1,32334,419
Control_TS_22_A,1,test,P,11,2,820,350,P,1,<rshift>,1,1,33335,366
Control_TS_22_A,1,test,P,12,1,620,350,R,0,<rshift>,1,0,34335,361
Control_TS_22_A,1,test,P,13,3,620,550,R,0,<rshift>,1,0,35335,329
Control_TS_22_A,1,test,P,14,4,820,550,P,1,<rshift>,1,1,36335,386
Control_TS_22_A,1,test,P,15,2,820,350,P,1,<rshift>,1,1,37335,352
Control_TS_22_A,1,test,P,16,3,620,550,P,1,<rshift>,1,1,38334,356
Control_TS_22_A,1,test,P,17,2,820,350,P,1,<rshift>,1,1,39334,296
Control_TS_22_A,1,test,P,18,2,820,350,P,1,<rshift>,1,1,40335,351
Control_TS_22_A,1,test,P,19,2,820,350,P,1,<rshift>,1,1,41336,359
Control_TS_22_A,1,test,P,20,2,820,350,P,1,<rshift>,1,1,42334,281
Control_TS_22_A,1,test,P,21,3,620,550,P,1,<rshift>,1,1,43336,268
Control_TS_22_A,1,test,P,22,4,820,550,P,1,<rshift>,1,1,44337,315
Control_TS_22_A,1,test,P,23,1,620,350,R,0,<rshift>,1,0,45335,331
Control_TS_22_A,1,test,P,24,3,620,550,P,1,<rshift>,1,1,46334,271
Control_TS_22_A,1,test,P,25,3,620,550,R,0,<rshift>,1,0,47336,413
Control_TS_22_A,1,test,P,26,3,620,550,P,1,<rshift>,1,1,48336,427
Control_TS_22_A,1,test,P,27,3,620,550,P,1,<rshift>,1,1,49335,368
Control_TS_22_A,1,test,P,28,3,620,550,R,0,NONE,0,1,50335,950
Control_TS_22_A,1,test,P,29,1,620,350,P,1,<rshift>,1,1,51335,307
Control_TS_22_A,1,test,P,30,1,620,350,P,1,<rshift>,1,1,52334,397
Control_TS_22_A,1,test,P,31,3,620,550,P,1,<rshift>,1,1,53336,419
Control_TS_22_A,1,test,P,32,4,820,550,P,1,<rshift>,1,1,54334,348
Control_TS_22_A,1,test,P,33,3,620,550,P,1,<rshift>,1,1,55334,452
Control_TS_22_A,1,test,P,34,1,620,350,P,1,<rshift>,1,1,56337,396
Control_TS_22_A,1,test,P,35,2,820,350,P,1,<rshift>,1,1,57335,269
Control_TS_22_A,1,test,P,36,1,620,350,P,1,<rshift>,1,1,58335,472
Control_TS_22_A,1,test,P,37,3,620,550,R,0,<rshift>,1,0,59336,292
Control_TS_22_A,1,test,P,38,2,820,350,P,1,<rshift>,1,1,60335,251
Control_TS_22_A,1,test,P,39,1,620,350,P,1,<rshift>,1,1,61334,400
Control_TS_22_A,1,test,P,40,1,620,350,P,1,<rshift>,1,1,62336,408
Control_TS_22_A,1,test,P,41,1,620,350,P,1,<rshift>,1,1,63335,515
Control_TS_22_A,1,test,P,42,4,820,550,R,0,<rshift>,1,0,64337,325
Control_TS_22_A,1,test,P,43,4,820,550,P,1,<rshift>,1,1,65337,514
Control_TS_22_A,1,test,P,44,1,620,350,R,0,<rshift>,1,0,66335,324
Control_TS_22_A,1,test,P,45,4,820,550,P,1,<rshift>,1,1,67336,411
Control_TS_22_A,1,test,P,46,2,820,350,P,1,<rshift>,1,1,68337,291
Control_TS_22_A,1,test,P,47,3,620,550,P,1,<rshift>,1,1,69335,267
Control_TS_22_A,1,test,P,48,3,620,550,P,1,<rshift>,1,1,70337,297
Control_TS_22_A,1,test,P,49,2,820,350,P,1,<rshift>,1,1,71338,295
Control_TS_22_A,1,test,P,50,1,620,350,P,1,<rshift>,1,1,72335,342
Control_TS_22_A,1,test,P,51,3,620,550,P,1,<rshift>,1,1,73335,313
Control_TS_22_A,1,test,P,52,1,620,350,P,1,<rshift>,1,1,74336,356
Control_TS_22_A,1,test,P,53,4,820,550,R,0,<rshift>,1,0,75336,338
Control_TS_22_A,1,test,P,54,4,820,550,R,0,NONE,0,1,76336,950
Control_TS_22_A,1,test,P,55,1,620,350,R,0,NONE,0,1,77334,951
Control_TS_22_A,1,test,P,56,3,620,550,P,1,<rshift>,1,1,78334,536
Control_TS_22_A,1,test,P,57,4,820,550,P,1,<rshift>,1,1,79334,394
Control_TS_22_A,1,test,P,58,2,820,350,P,1,<rshift>,1,1,80334,429
Control_TS_22_A,1,test,P,59,2,820,350,P,1,<rshift>,1,1,81334,361
Control_TS_22_A,1,test,P,60,3,620,550,P,1,<rshift>,1,1,82337,317
Control_TS_22_A,1,test,P,61,3,620,550,P,1,<rshift>,1,1,83334,329
Control_TS_22_A,1,test,P,62,1,620,350,R,0,NONE,0,1,84335,950
Control_TS_22_A,1,test,P,63,4,820,550,P,1,<rshift>,1,1,85335,319
Control_TS_22_A,1,test,P,64,4,820,550,P,1,<rshift>,1,1,86336,421
Control_TS_22_A,1,test,P,65,2,820,350,P,1,<rshift>,1,1,87335,343
Control_TS_22_A,1,test,P,66,4,820,550,R,0,NONE,0,1,88335,950
Control_TS_22_A,1,test,P,67,4,820,550,P,1,<rshift>,1,1,89334,456
Control_TS_22_A,1,test,P,68,4,820,550,P,1,<rshift>,1,1,90334,349
Control_TS_22_A,1,test,P,69,3,620,550,P,1,<rshift>,1,1,91337,633
Control_TS_22_A,1,test,P,70,2,820,350,P,1,<rshift>,1,1,92337,308
Control_TS_22_A,1,test,P,71,3,620,550,P,1,<rshift>,1,1,93335,363
Control_TS_22_A,1,test,P,72,3,620,550,P,1,<rshift>,1,1,94334,402
Control_TS_22_A,1,test,P,73,2,820,350,R,0,NONE,0,1,95334,951
Control_TS_22_A,1,test,P,74,4,820,550,P,1,<rshift>,1,1,96334,329
Control_TS_22_A,1,test,P,75,2,820,350,R,0,<rshift>,1,0,97335,343
Control_TS_22_A,1,test,P,76,3,620,550,P,1,<rshift>,1,1,98335,307
Control_TS_22_A,1,test,P,77,3,620,550,R,0,NONE,0,1,99335,950
Control_TS_22_A,1,test,P,78,4,820,550,R,0,<rshift>,1,0,100334,327
Control_TS_22_A,1,test,P,79,2,820,350,R,0,NONE,0,1,101335,950
Control_TS_22_A,1,test,P,80,4,820,550,P,1,<rshift>,1,1,102334,419
Control_TS_22_A,1,test,P,81,2,820,350,P,1,<rshift>,1,1,103335,386
Control_TS_22_A,1,test,P,82,4,820,550,P,1,<rshift>,1,1,104334,388
Control_TS_22_A,1,test,P,83,2,820,350,P,1,<rshift>,1,1,105334,338
Control_TS_22_A,1,test,P,84,2,820,350,P,1,<rshift>,1,1,106334,411
Control_TS_22_A,1,test,P,85,1,620,350,P,1,<rshift>,1,1,107336,481
Control_TS_22_A,1,test,P,86,1,620,350,P,1,<rshift>,1,1,108336,370
Control_TS_22_A,1,test,P,87,3,620,550,P,1,<rshift>,1,1,109334,403
Control_TS_22_A,1,test,P,88,2,820,350,P,1,<rshift>,1,1,110336,299
Control_TS_22_A,1,test,P,89,1,620,350,P,1,<rshift>,1,1,111335,372
Control_TS_22_A,1,test,P,90,4,820,550,P,1,<rshift>,1,1,112336,270
Control_TS_22_A,1,test,P,91,4,820,550,R,0,NONE,0,1,113334,950
Control_TS_22_A,1,test,P,92,2,820,350,R,0,<rshift>,1,0,114334,317
Control_TS_22_A,1,test,P,93,2,820,350,P,1,<rshift>,1,1,115334,444
Control_TS_22_A,1,test,P,94,2,820,350,P,1,<rshift>,1,1,116334,423
Control_TS_22_A,1,test,P,95,2,820,350,P,1,<rshift>,1,1,117337,319
Control_TS_22_A,1,test,P,96,1,620,350,R,0,NONE,0,1,118336,950
Control_TS_22_A,1,test,P,97,3,620,550,P,1,<rshift>,1,1,119335,359
Control_TS_22_A,1,test,P,98,4,820,550,P,1,<rshift>,1,1,120334,366
Control_TS_22_A,1,test,P,99,3,620,550,P,1,<rshift>,1,1,121336,390
Control_TS_22_A,1,test,P,100,4,820,550,P,1,<rshift>,1,1,122334,337
Control_TS_22_A,1,test,P,101,3,620,550,P,1,<rshift>,1,1,123336,363
Control_TS_22_A,1,test,P,102,2,820,350,P,1,<rshift>,1,1,124334,379
Control_TS_22_A,1,test,P,103,4,820,550,P,1,<rshift>,1,1,125334,526
Control_TS_22_A,1,test,P,104,1,620,350,R,0,<rshift>,1,0,126335,346
Control_TS_22_A,1,test,P,105,4,820,550,P,1,<rshift>,1,1,127334,277
Control_TS_22_A,1,test,P,106,3,620,550,P,1,<rshift>,1,1,128336,313
Control_TS_22_A,1,test,P,107,2,820,350,P,1,<rshift>,1,1,129336,292
Control_TS_22_A,1,test,P,108,2,820,350,R,0,<rshift>,1,0,130335,335
Control_TS_22_A,1,test,P,109,1,620,350,R,0,NONE,0,1,131336,951
Control_TS_22_A,1,test,P,110,2,820,350,P,1,<rshift>,1,1,132334,403
Control_TS_22_A,1,test,P,111,2,820,350,R,0,<rshift>,1,0,133334,485
Control_TS_22_A,1,test,P,112,1,620,350,R,0,NONE,0,1,134335,950
Control_TS_22_A,1,test,P,113,4,820,550,P,1,<rshift>,1,1,135334,328
Control_TS_22_A,1,test,P,114,4,820,550,P,1,<rshift>,1,1,136335,380
Control_TS_22_A,1,test,P,115,4,820,550,P,1,<rshift>,1,1,137334,382
Control_TS_22_A,1,test,P,116,3,620,550,P,1,<rshift>,1,1,138334,598
Control_TS_22_A,1,test,P,117,2,820,350,P,1,<rshift>,1,1,139334,358
Control_TS_22_A,1,test,P,118,1,620,350,R,0,<rshift>,1,0,140336,317
Control_TS_22_A,1,test,P,119,2,820,350,P,1,<rshift>,1,1,141336,427
Control_TS_22_A,1,test,P,120,1,620,350,P,1,<rshift>,1,1,142334,526
Control_TS_22_A,1,test,P,121,1,620,350,P,1,<rshift>,1,1,143334,355
Control_TS_22_A,1,test,P,122,2,820,350,P,1,<rshift>,1,1,144335,370
Control_TS_22_A,1,test,P,123,2,820,350,P,1,<rshift>,1,1,145336,366
Control_TS_22_A,1,test,P,124,4,820,550,P,1,<rshift>,1,1,146335,542
Control_TS_22_A,1,test,P,125,3,620,550,P,1,<rshift>,1,1,147334,421
Control_TS_22_A,1,test,P,126,2,820,350,P,1,<rshift>,1,1,148335,304
Control_TS_22_A,1,test,P,127,3,620,550,P,1,<rshift>,1,1,149335,334
Control_TS_22_A,1,test,P,128,1,620,350,P,1,<rshift>,1,1,150336,380
Control_TS_22_A,1,test,P,129,2,820,350,P,1,<rshift>,1,1,151336,340
Control_TS_22_A,1,test,P,130,1,620,350,P,1,<rshift>,1,1,152335,415
Control_TS_22_A,1,test,P,131,2,820,350,P,1,<rshift>,1,1,153335,293
Control_TS_22_A,1,test,P,132,4,820,550,P,1,<rshift>,1,1,154336,313
Control_TS_22_A,1,test,P,133,3,620,550,R,0,NONE,0,1,155337,950
Control_TS_22_A,1,test,P,134,2,820,350,P,1,<rshift>,1,1,156335,276
Control_TS_22_A,1,test,P,135,1,620,350,P,1,<rshift>,1,1,157335,379
Control_TS_22_A,1,test,P,136,4,820,550,P,1,<rshift>,1,1,158334,256
Control_TS_22_A,1,test,P,137,4,820,550,P,1,<rshift>,1,1,159334,329
Control_TS_22_A,1,test,P,138,3,620,550,P,1,<rshift>,1,1,160336,480
Control_TS_22_A,1,test,P,139,1,620,350,P,1,<rshift>,1,1,161335,377
Control_TS_22_A,1,test,P,140,1,620,350,P,1,<rshift>,1,1,162335,391
Control_TS_22_A,1,test,P,141,4,820,550,P,1,<rshift>,1,1,163337,317
Control_TS_22_A,1,test,P,142,2,820,350,P,1,<rshift>,1,1,164336,282
Control_TS_22_A,1,test,P,143,1,620,350,P,1,<rshift>,1,1,165336,394
Control_TS_22_A,1,test,P,144,3,620,550,P,1,<rshift>,1,1,166334,321
Control_TS_22_A,1,test,P,145,1,620,350,R,0,<rshift>,1,0,167336,357
Control_TS_22_A,1,test,P,146,3,620,550,P,1,<rshift>,1,1,168335,338
Control_TS_22_A,1,test,P,147,1,620,350,P,1,<rshift>,1,1,169335,404
Control_TS_22_A,1,test,P,148,1,620,350,R,0,<rshift>,1,0,170337,372
Control_TS_22_A,1,test,P,149,1,620,350,P,1,<rshift>,1,1,171335,537
Control_TS_22_A,1,test,P,150,2,820,350,P,1,<rshift>,1,1,172334,384
Control_TS_22_A,1,test,P,151,1,620,350,P,1,<rshift>,1,1,173336,365
Control_TS_22_A,1,test,P,152,4,820,550,P,1,<rshift>,1,1,174335,281
Control_TS_22_A,1,test,P,153,4,820,550,P,1,<rshift>,1,1,175334,352
Control_TS_22_A,1,test,P,154,2,820,350,P,1,<rshift>,1,1,176337,315
Control_TS_22_A,1,test,P,155,4,820,550,R,0,<rshift>,1,0,177334,385
Control_TS_22_A,1,test,P,156,1,620,350,P,1,<rshift>,1,1,178334,311
Control_TS_22_A,1,test,P,157,1,620,350,P,1,<rshift>,1,1,179336,447
Control_TS_22_A,1,test,P,158,4,820,550,P,1,<rshift>,1,1,180335,450
Control_TS_22_A,1,test,P,159,3,620,550,P,1,<rshift>,1,1,181336,404
Control_TS_22_A,1,test,P,160,3,620,550,P,1,<rshift>,1,1,182336,424
Control_TS_22_A,1,test,P,161,4,820,550,P,1,<rshift>,1,1,183337,488
Control_TS_22_A,1,test,P,162,4,820,550,P,1,<rshift>,1,1,184334,403
Control_TS_22_A,1,test,P,163,4,820,550,P,1,<rshift>,1,1,185334,408
Control_TS_22_A,1,test,P,164,4,820,550,P,1,<rshift>,1,1,186334,456
Control_TS_22_A,1,test,P,165,1,620,350,P,1,<rshift>,1,1,187337,412
Control_TS_22_A,1,test,P,166,4,820,550,R,0,<rshift>,1,0,188336,357
Control_TS_22_A,1,test,P,167,1,620,350,P,1,<rshift>,1,1,189334,345
Control_TS_22_A,1,test,P,168,1,620,350,P,1,<rshift>,1,1,190335,281
Control_TS_22_A,1,test,P,169,1,620,350,P,1,<rshift>,1,1,191335,366
Control_TS_22_A,1,test,P,170,1,620,350,P,1,<rshift>,1,1,192335,198
Control_TS_22_A,1,test,P,171,1,620,350,P,1,<rshift>,1,1,193334,282
Control_TS_22_A,1,test,P,172,2,820,350,P,1,<rshift>,1,1,194336,593
Control_TS_22_A,1,test,P,173,3,620,550,P,1,<rshift>,1,1,195334,335
Control_TS_22_A,1,test,P,174,2,820,350,P,1,<rshift>,1,1,196336,353
Control_TS_22_A,1,test,P,175,3,620,550,P,1,<rshift>,1,1,197336,439
Control_TS_22_A,1,test,P,176,3,620,550,P,1,<rshift>,1,1,198336,288
Control_TS_22_A,1,test,P,177,2,820,350,P,1,<rshift>,1,1,199334,431
Control_TS_22_A,1,test,P,178,1,620,350,P,1,<rshift>,1,1,200334,334
Control_TS_22_A,1,test,P,179,3,620,550,P,1,<rshift>,1,1,201334,358
Control_TS_22_A,1,test,P,180,1,620,350,P,1,<rshift>,1,1,202335,265
Control_TS_22_A,1,test,P,181,2,820,350,P,1,<rshift>,1,1,203334,268
Control_TS_22_A,1,test,P,182,4,820,550,P,1,<rshift>,1,1,204334,472
Control_TS_22_A,1,test,P,183,1,620,350,P,1,<rshift>,1,1,205334,304
Control_TS_22_A,1,test,P,184,2,820,350,P,1,<rshift>,1,1,206334,280
Control_TS_22_A,1,test,P,185,1,620,350,P,1,<rshift>,1,1,207337,363
Control_TS_22_A,1,test,P,186,4,820,550,P,1,<rshift>,1,1,208336,321
Control_TS_22_A,1,test,P,187,3,620,550,P,1,<rshift>,1,1,209334,398
Control_TS_22_A,1,test,P,188,2,820,350,P,1,<rshift>,1,1,210334,272
Control_TS_22_A,1,test,P,189,2,820,350,P,1,<rshift>,1,1,211336,429
Control_TS_22_A,1,test,P,190,1,620,350,R,0,<rshift>,1,0,212335,321
Control_TS_22_A,1,test,P,191,4,820,550,R,0,NONE,0,1,213334,950
Control_TS_22_A,1,test,P,192,4,820,550,P,1,<rshift>,1,1,214335,511
Control_TS_22_A,1,test,P,193,3,620,550,P,1,<rshift>,1,1,215334,381
Control_TS_22_A,1,test,P,194,1,620,350,P,1,<rshift>,1,1,216336,374
Control_TS_22_A,1,test,P,195,3,620,550,P,1,<rshift>,1,1,217334,415
Control_TS_22_A,1,test,P,196,2,820,350,R,0,<rshift>,1,0,218336,238
Control_TS_22_A,1,test,P,197,1,620,350,P,1,<rshift>,1,1,219334,454
Control_TS_22_A,1,test,P,198,4,820,550,P,1,<rshift>,1,1,220334,288
Control_TS_22_A,1,test,P,199,2,820,350,P,1,<rshift>,1,1,221334,319
Control_TS_22_A,1,test,P,200,1,620,350,R,0,<rshift>,1,0,222336,258
Control_TS_22_A,1,test,P,201,4,820,550,P,1,<rshift>,1,1,223336,567
Control_TS_22_A,1,test,P,202,1,620,350,P,1,<rshift>,1,1,224334,329
Control_TS_22_A,1,test,P,203,1,620,350,P,1,<rshift>,1,1,225334,296
Control_TS_22_A,1,test,P,204,4,820,550,P,1,<rshift>,1,1,226334,294
Control_TS_22_A,1,test,P,205,1,620,350,R,0,<rshift>,1,0,227334,334
Control_TS_22_A,1,test,P,206,2,820,350,P,1,<rshift>,1,1,228337,323
Control_TS_22_A,1,test,P,207,3,620,550,P,1,<rshift>,1,1,229334,360
Control_TS_22_A,1,test,P,208,4,820,550,P,1,<rshift>,1,1,230334,417
Control_TS_22_A,1,test,P,209,3,620,550,P,1,<rshift>,1,1,231334,444
Control_TS_22_A,1,test,P,210,2,820,350,R,0,<rshift>,1,0,232335,315
Control_TS_22_A,1,test,P,211,4,820,550,P,1,<rshift>,1,1,233337,262
Control_TS_22_A,1,test,P,212,1,620,350,P,1,<rshift>,1,1,234336,301
Control_TS_22_A,1,test,P,213,4,820,550,P,1,<rshift>,1,1,235335,327
Control_TS_22_A,1,test,P,214,4,820,550,R,0,<rshift>,1,0,236334,395
Control_TS_22_A,1,test,P,215,2,820,350,P,1,<rshift>,1,1,237334,377
Control_TS_22_A,1,test,P,216,2,820,350,P,1,<rshift>,1,1,238334,519
Control_TS_22_A,1,test,P,217,2,820,350,P,1,<rshift>,1,1,239336,352
Control_TS_22_A,1,test,P,218,1,620,350,P,1,<rshift>,1,1,240335,379
Control_TS_22_A,1,test,P,219,4,820,550,P,1,<rshift>,1,1,241335,580
Control_TS_22_A,1,test,P,220,4,820,550,P,1,<rshift>,1,1,242336,397
Control_TS_22_A,1,test,P,221,4,820,550,P,1,<rshift>,1,1,243335,431
Control_TS_22_A,1,test,P,222,2,820,350,P,1,<rshift>,1,1,244336,513
Control_TS_22_A,1,test,P,223,3,620,550,P,1,<rshift>,1,1,245336,445
Control_TS_22_A,1,test,P,224,1,620,350,P,1,<rshift>,1,1,246334,379
Control_TS_22_A,1,test,P,225,1,620,350,P,1,<rshift>,1,1,247336,406
Control_TS_22_A,1,test,P,226,1,620,350,P,1,<rshift>,1,1,248336,452
Control_TS_22_A,1,test,P,227,4,820,550,P,1,<rshift>,1,1,249335,535
Control_TS_22_A,1,test,P,228,2,820,350,P,1,<rshift>,1,1,250335,465
Control_TS_22_A,1,test,P,229,1,620,350,P,1,<rshift>,1,1,251334,333
Control_TS_22_A,1,test,P,230,4,820,550,P,1,<rshift>,1,1,252336,392
Control_TS_22_A,1,test,P,231,2,820,350,P,1,<rshift>,1,1,253336,350
Control_TS_22_A,1,test,P,232,4,820,550,P,1,<rshift>,1,1,254336,366
Control_TS_22_A,1,test,P,233,4,820,550,P,1,<rshift>,1,1,255334,390
Control_TS_22_A,1,test,P,234,2,820,350,P,1,<rshift>,1,1,256336,330
Control_TS_22_A,1,test,P,235,4,820,550,P,1,<rshift>,1,1,257334,357
Control_TS_22_A,1,test,P,236,2,820,350,P,1,<rshift>,1,1,258335,353
Control_TS_22_A,1,test,P,237,4,820,550,P,1,<rshift>,1,1,259335,443
Control_TS_22_A,1,test,P,238,2,820,350,P,1,<rshift>,1,1,260335,365
Control_TS_22_A,1,test,P,239,2,820,350,P,1,<rshift>,1,1,261336,373
Control_TS_22_A,1,test,P,240,1,620,350,R,0,<rshift>,1,0,262337,366
Control_TS_22_A,1,test,P,241,3,620,550,P,1,<rshift>,1,1,263334,336
Control_TS_22_A,1,test,P,242,4,820,550,R,0,<rshift>,1,0,264334,259
Control_TS_22_A,1,test,P,243,1,620,350,R,0,NONE,0,1,265334,950
Control_TS_22_A,1,test,P,244,3,620,550,P,1,<rshift>,1,1,266334,385
Control_TS_22_A,1,test,P,245,4,820,550,P,1,<rshift>,1,1,267336,530
Control_TS_22_A,1,test,P,246,4,820,550,P,1,<rshift>,1,1,268337,428
Control_TS_22_A,1,test,P,247,4,820,550,R,0,<rshift>,1,0,269334,367
Control_TS_22_A,1,test,P,248,4,820,550,P,1,<rshift>,1,1,270335,407
Control_TS_22_A,1,test,P,249,4,820,550,P,1,<rshift>,1,1,271336,403
Control_TS_22_A,1,test,P,250,4,820,550,R,0,<rshift>,1,0,272336,382
Control_TS_22_A,1,test,P,251,1,620,350,P,1,<rshift>,1,1,273335,519
Control_TS_22_A,1,test,P,252,3,620,550,P,1,<rshift>,1,1,274334,420
Control_TS_22_A,1,test,P,253,2,820,350,R,0,<rshift>,1,0,275334,334
Control_TS_22_A,1,test,P,254,4,820,550,P,1,<rshift>,1,1,276335,368
Control_TS_22_A,1,test,P,255,3,620,550,P,1,<rshift>,1,1,277337,394
Control_TS_22_A,1,test,P,256,2,820,350,P,1,<rshift>,1,1,278336,445
Control_TS_22_A,1,test,P,257,2,820,350,P,1,<rshift>,1,1,279335,379
Control_TS_22_A,1,test,P,258,3,620,550,P,1,<rshift>,1,1,280336,443
Control_TS_22_A,1,test,P,259,4,820,550,P,1,<rshift>,1,1,281334,467
Control_TS_22_A,1,test,P,260,4,820,550,P,1,<rshift>,1,1,282334,379
Control_TS_22_A,1,test,P,261,1,620,350,R,0,NONE,0,1,283334,950
Control_TS_22_A,1,test,P,262,2,820,350,P,1,<rshift>,1,1,284335,416
Control_TS_22_A,1,test,P,263,1,620,350,R,0,<rshift>,1,0,285336,338
Control_TS_22_A,1,test,P,264,3,620,550,P,1,<rshift>,1,1,286336,335
Control_TS_22_A,1,test,P,265,3,620,550,P,1,<rshift>,1,1,287335,384
Control_TS_22_A,1,test,P,266,2,820,350,P,1,<rshift>,1,1,288336,413
Control_TS_22_A,1,test,P,267,1,620,350,P,1,<rshift>,1,1,289334,376
Control_TS_22_A,1,test,P,268,2,820,350,P,1,<rshift>,1,1,290336,427
Control_TS_22_A,1,test,P,269,3,620,550,R,0,NONE,0,1,291336,951
Control_TS_22_A,1,test,P,270,3,620,550,R,0,NONE,0,1,292336,950
Control_TS_22_A,1,test,P,271,4,820,550,P,1,<rshift>,1,1,293334,350
Control_TS_22_A,1,test,P,272,3,620,550,R,0,NONE,0,1,294335,950
Control_TS_22_A,1,test,P,273,1,620,350,P,1,<rshift>,1,1,295335,351
Control_TS_22_A,1,test,P,274,3,620,550,P,1,<rshift>,1,1,296334,536
Control_TS_22_A,1,test,P,275,1,620,350,P,1,<rshift>,1,1,297334,432
Control_TS_22_A,1,test,P,276,3,620,550,R,0,<rshift>,1,0,298334,426
Control_TS_22_A,1,test,P,277,4,820,550,P,1,<rshift>,1,1,299334,451
Control_TS_22_A,1,test,P,278,3,620,550,R,0,NONE,0,1,300337,950
Control_TS_22_A,1,test,P,279,3,620,550,P,1,<rshift>,1,1,301334,410
Control_TS_22_A,1,test,P,280,2,820,350,P,1,<rshift>,1,1,302334,406
Control_TS_22_A,1,test,P,281,1,620,350,P,1,<rshift>,1,1,303335,402
Control_TS_22_A,1,test,P,282,3,620,550,R,0,<rshift>,1,0,304335,369
Control_TS_22_A,1,test,P,283,3,620,550,R,0,NONE,0,1,305334,950
Control_TS_22_A,1,test,P,284,3,620,550,R,0,NONE,0,1,306335,950
Control_TS_22_A,1,test,P,285,2,820,350,P,1,<rshift>,1,1,307334,353
Control_TS_22_A,1,test,P,286,1,620,350,P,1,<rshift>,1,1,308336,369
Control_TS_22_A,1,test,P,287,3,620,550,R,0,NONE,0,1,309335,950
Control_TS_22_A,1,test,P,288,1,620,350,P,1,<rshift>,1,1,310334,393
Control_TS_22_A,1,test,P,289,2,820,350,R,0,<rshift>,1,0,311334,348
Control_TS_22_A,1,test,P,290,3,620,550,P,1,<rshift>,1,1,312336,383
Control_TS_22_A,1,test,P,291,2,820,350,P,1,<rshift>,1,1,313335,383
Control_TS_22_A,1,test,P,292,3,620,550,P,1,<rshift>,1,1,314334,603
Control_TS_22_A,1,test,P,293,1,620,350,P,1,<rshift>,1,1,315336,340
Control_TS_22_A,1,test,P,294,4,820,550,P,1,<rshift>,1,1,316336,368
Control_TS_22_A,1,test,P,295,4,820,550,P,1,<rshift>,1,1,317337,397
Control_TS_22_A,1,test,P,296,1,620,350,R,0,<rshift>,1,0,318336,332
Control_TS_22_A,1,test,P,297,3,620,550,P,1,<rshift>,1,1,319334,309
Control_TS_22_A,1,test,P,298,3,620,550,P,1,<rshift>,1,1,320334,397
Control_TS_22_A,1,test,P,299,1,620,350,P,1,<rshift>,1,1,321335,476
Control_TS_22_A,1,test,P,300,3,620,550,P,1,<rshift>,1,1,322336,383
Control_TS_22_A,2,practice,R,1,1,620,350,R,1,<rshift>,1,1,381330,588
Control_TS_22_A,2,practice,R,2,4,820,550,R,1,<rshift>,1,1,382330,680
Control_TS_22_A,2,practice,R,3,4,820,550,P,0,<rshift>,1,0,383329,362
Control_TS_22_A,2,practice,R,4,1,620,350,R,1,NONE,0,0,384704,950
Control_TS_22_A,2,practice,R,5,1,620,350,R,1,<rshift>,1,1,386665,494
Control_TS_22_A,2,practice,R,6,2,820,350,R,1,<rshift>,1,1,387168,475
Control_TS_22_A,2,practice,R,7,3,620,550,R,1,<rshift>,1,1,387650,464
Control_TS_22_A,2,practice,R,8,4,820,550,R,1,<rshift>,1,1,388328,467
Control_TS_22_A,2,practice,R,9,2,820,350,P,0,<rshift>,1,0,389329,276
Control_TS_22_A,2,practice,R,10,2,820,350,R,1,<rshift>,1,1,390620,527
Control_TS_22_A,3,test,R,1,4,820,550,R,1,<rshift>,1,1,395239,479
Control_TS_22_A,3,test,R,2,3,620,550,R,1,<rshift>,1,1,396238,354
Control_TS_22_A,3,test,R,3,3,620,550,P,0,<rshift>,1,0,397238,362
Control_TS_22_A,3,test,R,4,1,620,350,R,1,<rshift>,1,1,398237,403
Control_TS_22_A,3,test,R,5,1,620,350,R,1,<rshift>,1,1,399240,347
Control_TS_22_A,3,test,R,6,1,620,350,R,1,<rshift>,1,1,400240,287
Control_TS_22_A,3,test,R,7,3,620,550,R,1,<rshift>,1,1,401238,336
Control_TS_22_A,3,test,R,8,3,620,550,R,1,<rshift>,1,1,402237,325
Control_TS_22_A,3,test,R,9,2,820,350,R,1,<rshift>,1,1,403237,462
Control_TS_22_A,3,test,R,10,4,820,550,R,1,<rshift>,1,1,404237,341
Control_TS_22_A,3,test,R,11,2,820,350,R,1,<rshift>,1,1,405237,290
Control_TS_22_A,3,test,R,12,4,820,550,R,1,<rshift>,1,1,406237,232
Control_TS_22_A,3,test,R,13,3,620,550,R,1,<rshift>,1,1,407240,315
Control_TS_22_A,3,test,R,14,2,820,350,R,1,<rshift>,1,1,408237,312
Control_TS_22_A,3,test,R,15,3,620,550,R,1,<rshift>,1,1,409239,307
Control_TS_22_A,3,test,R,16,4,820,550,P,0,<rshift>,1,0,410237,335
Control_TS_22_A,3,test,R,17,4,820,550,R,1,<rshift>,1,1,411239,515
Control_TS_22_A,3,test,R,18,4,820,550,R,1,<rshift>,1,1,412239,441
Control_TS_22_A,3,test,R,19,2,820,350,R,1,<rshift>,1,1,413237,312
Control_TS_22_A,3,test,R,20,2,820,350,R,1,<rshift>,1,1,414239,333
Control_TS_22_A,3,test,R,21,4,820,550,R,1,<rshift>,1,1,415238,305
Control_TS_22_A,3,test,R,22,3,620,550,R,1,<rshift>,1,1,416240,271
Control_TS_22_A,3,test,R,23,3,620,550,R,1,<rshift>,1,1,417239,367
Control_TS_22_A,3,test,R,24,4,820,550,R,1,<rshift>,1,1,418237,285
Control_TS_22_A,3,test,R,25,2,820,350,P,0,<rshift>,1,0,419239,277
Control_TS_22_A,3,test,R,26,2,820,350,P,0,NONE,0,1,420239,951
Control_TS_22_A,3,test,R,27,1,620,350,R,1,<rshift>,1,1,421237,428
Control_TS_22_A,3,test,R,28,4,820,550,R,1,<rshift>,1,1,422239,275
Control_TS_22_A,3,test,R,29,1,620,350,R,1,<rshift>,1,1,423238,356
Control_TS_22_A,3,test,R,30,1,620,350,R,1,<rshift>,1,1,424238,368
Control_TS_22_A,3,test,R,31,3,620,550,R,1,<rshift>,1,1,425239,368
Control_TS_22_A,3,test,R,32,4,820,550,R,1,<rshift>,1,1,426239,271
Control_TS_22_A,3,test,R,33,2,820,350,P,0,<rshift>,1,0,427238,306
Control_TS_22_A,3,test,R,34,3,620,550,R,1,<rshift>,1,1,428239,350
Control_TS_22_A,3,test,R,35,1,620,350,R,1,<rshift>,1,1,429239,442
Control_TS_22_A,3,test,R,36,4,820,550,R,1,<rshift>,1,1,430239,291
Control_TS_22_A,3,test,R,37,2,820,350,P,0,NONE,0,1,431240,950
Control_TS_22_A,3,test,R,38,2,820,350,R,1,<rshift>,1,1,432238,470
Control_TS_22_A,3,test,R,39,4,820,550,R,1,<rshift>,1,1,433238,356
Control_TS_22_A,3,test,R,40,2,820,350,R,1,<rshift>,1,1,434237,350
Control_TS_22_A,3,test,R,41,3,620,550,R,1,<rshift>,1,1,435237,274
Control_TS_22_A,3,test,R,42,4,820,550,R,1,<rshift>,1,1,436239,360
Control_TS_22_A,3,test,R,43,1,620,350,R,1,<rshift>,1,1,437239,351
Control_TS_22_A,3,test,R,44,2,820,350,R,1,<rshift>,1,1,438237,273
Control_TS_22_A,3,test,R,45,1,620,350,P,0,<rshift>,1,0,439239,279
Control_TS_22_A,3,test,R,46,1,620,350,R,1,<rshift>,1,1,440239,454
Control_TS_22_A,3,test,R,47,1,620,350,P,0,<rshift>,1,0,441239,363
Control_TS_22_A,3,test,R,48,3,620,550,P,0,<rshift>,1,0,442237,262
Control_TS_22_A,3,test,R,49,4,820,550,R,1,<rshift>,1,1,443239,327
Control_TS_22_A,3,test,R,50,1,620,350,R,1,<rshift>,1,1,444237,380
Control_TS_22_A,3,test,R,51,2,820,350,R,1,<rshift>,1,1,445238,269
Control_TS_22_A,3,test,R,52,3,620,550,R,1,<rshift>,1,1,446237,315
Control_TS_22_A,3,test,R,53,2,820,350,R,1,<rshift>,1,1,447237,281
Control_TS_22_A,3,test,R,54,1,620,350,R,1,<rshift>,1,1,448237,257
Control_TS_22_A,3,test,R,55,3,620,550,R,1,<rshift>,1,1,449237,254
Control_TS_22_A,3,test,R,56,4,820,550,R,1,<rshift>,1,1,450237,309
Control_TS_22_A,3,test,R,57,3,620,550,R,1,<rshift>,1,1,451239,352
Control_TS_22_A,3,test,R,58,3,620,550,R,1,<rshift>,1,1,452238,358
Control_TS_22_A,3,test,R,59,3,620,550,R,1,<rshift>,1,1,453237,313
Control_TS_22_A,3,test,R,60,1,620,350,R,1,<rshift>,1,1,454240,315
Control_TS_22_A,3,test,R,61,3,620,550,R,1,<rshift>,1,1,455237,418
Control_TS_22_A,3,test,R,62,3,620,550,R,1,<rshift>,1,1,456237,355
Control_TS_22_A,3,test,R,63,1,620,350,R,1,<rshift>,1,1,457237,376
Control_TS_22_A,3,test,R,64,2,820,350,R,1,<rshift>,1,1,458239,232
Control_TS_22_A,3,test,R,65,4,820,550,R,1,<rshift>,1,1,459237,192
Control_TS_22_A,3,test,R,66,3,620,550,R,1,<rshift>,1,1,460239,414
Control_TS_22_A,3,test,R,67,4,820,550,R,1,<rshift>,1,1,461238,336
Control_TS_22_A,3,test,R,68,3,620,550,R,1,<rshift>,1,1,462237,292
Control_TS_22_A,3,test,R,69,1,620,350,R,1,<rshift>,1,1,463237,314
Control_TS_22_A,3,test,R,70,3,620,550,R,1,<rshift>,1,1,464237,339
Control_TS_22_A,3,test,R,71,2,820,350,P,0,<rshift>,1,0,465239,218
Control_TS_22_A,3,test,R,72,2,820,350,P,0,<rshift>,1,0,466239,399
Control_TS_22_A,3,test,R,73,1,620,350,R,1,<rshift>,1,1,467238,414
Control_TS_22_A,3,test,R,74,3,620,550,R,1,<rshift>,1,1,468239,301
Control_TS_22_A,3,test,R,75,4,820,550,R,1,<rshift>,1,1,469237,290
Control_TS_22_A,3,test,R,76,1,620,350,R,1,<rshift>,1,1,470237,353
Control_TS_22_A,3,test,R,77,3,620,550,R,1,<rshift>,1,1,471237,245
Control_TS_22_A,3,test,R,78,1,620,350,P,0,<rshift>,1,0,472238,247
Control_TS_22_A,3,test,R,79,2,820,350,P,0,<rshift>,1,0,473237,219
Control_TS_22_A,3,test,R,80,4,820,550,R,1,<rshift>,1,1,474238,333
Control_TS_22_A,3,test,R,81,3,620,550,R,1,<rshift>,1,1,475238,335
Control_TS_22_A,3,test,R,82,3,620,550,R,1,<rshift>,1,1,476239,368
Control_TS_22_A,3,test,R,83,2,820,350,R,1,<rshift>,1,1,477238,403
Control_TS_22_A,3,test,R,84,2,820,350,R,1,<rshift>,1,1,478238,342
Control_TS_22_A,3,test,R,85,1,620,350,R,1,<rshift>,1,1,479237,286
Control_TS_22_A,3,test,R,86,2,820,350,P,0,<rshift>,1,0,480237,275
Control_TS_22_A,3,test,R,87,4,820,550,R,1,<rshift>,1,1,481237,442
Control_TS_22_A,3,test,R,88,4,820,550,R,1,<rshift>,1,1,482239,380
Control_TS_22_A,3,test,R,89,4,820,550,R,1,<rshift>,1,1,483237,358
Control_TS_22_A,3,test,R,90,4,820,550,R,1,<rshift>,1,1,484238,279
Control_TS_22_A,3,test,R,91,1,620,350,R,1,<rshift>,1,1,485238,316
Control_TS_22_A,3,test,R,92,2,820,350,R,1,<rshift>,1,1,486238,288
Control_TS_22_A,3,test,R,93,4,820,550,R,1,<rshift>,1,1,487238,308
Control_TS_22_A,3,test,R,94,2,820,350,R,1,<rshift>,1,1,488239,342
Control_TS_22_A,3,test,R,95,1,620,350,R,1,<rshift>,1,1,489238,303
Control_TS_22_A,3,test,R,96,1,620,350,R,1,<rshift>,1,1,490237,287
Control_TS_22_A,3,test,R,97,2,820,350,R,1,<rshift>,1,1,491239,278
Control_TS_22_A,3,test,R,98,4,820,550,R,1,<rshift>,1,1,492238,282
Control_TS_22_A,3,test,R,99,2,820,350,R,1,<rshift>,1,1,493237,218
Control_TS_22_A,3,test,R,100,4,820,550,R,1,<rshift>,1,1,494238,284
Control_TS_22_A,3,test,R,101,4,820,550,R,1,<rshift>,1,1,495240,380
Control_TS_22_A,3,test,R,102,1,620,350,P,0,<rshift>,1,0,496240,314
Control_TS_22_A,3,test,R,103,1,620,350,R,1,<rshift>,1,1,497237,485
Control_TS_22_A,3,test,R,104,3,620,550,R,1,<rshift>,1,1,498239,402
Control_TS_22_A,3,test,R,105,3,620,550,R,1,<rshift>,1,1,499237,283
Control_TS_22_A,3,test,R,106,1,620,350,R,1,<rshift>,1,1,500237,216
Control_TS_22_A,3,test,R,107,2,820,350,P,0,<rshift>,1,0,501237,263
Control_TS_22_A,3,test,R,108,3,620,550,R,1,<rshift>,1,1,502239,282
Control_TS_22_A,3,test,R,109,3,620,550,R,1,<rshift>,1,1,503239,390
Control_TS_22_A,3,test,R,110,2,820,350,R,1,<rshift>,1,1,504239,352
Control_TS_22_A,3,test,R,111,4,820,550,R,1,<rshift>,1,1,505239,319
Control_TS_22_A,3,test,R,112,3,620,550,R,1,<rshift>,1,1,506237,279
Control_TS_22_A,3,test,R,113,3,620,550,R,1,<rshift>,1,1,507237,346
Control_TS_22_A,3,test,R,114,2,820,350,R,1,<rshift>,1,1,508239,289
Control_TS_22_A,3,test,R,115,4,820,550,R,1,<rshift>,1,1,509239,251
Control_TS_22_A,3,test,R,116,1,620,350,P,0,<rshift>,1,0,510239,249
Control_TS_22_A,3,test,R,117,2,820,350,R,1,<rshift>,1,1,511237,191
Control_TS_22_A,3,test,R,118,4,820,550,R,1,<rshift>,1,1,512237,270
Control_TS_22_A,3,test,R,119,4,820,550,R,1,<rshift>,1,1,513239,392
Control_TS_22_A,3,test,R,120,2,820,350,R,1,<rshift>,1,1,514237,324
Control_TS_22_A,3,test,R,121,3,620,550,R,1,<rshift>,1,1,515239,299
Control_TS_22_A,3,test,R,122,1,620,350,R,1,<rshift>,1,1,516238,368
Control_TS_22_A,3,test,R,123,4,820,550,P,0,<rshift>,1,0,517238,306
Control_TS_22_A,3,test,R,124,3,620,550,R,1,<rshift>,1,1,518240,298
Control_TS_22_A,3,test,R,125,3,620,550,R,1,<rshift>,1,1,519237,342
Control_TS_22_A,3,test,R,126,2,820,350,R,1,<rshift>,1,1,520237,291
Control_TS_22_A,3,test,R,127,1,620,350,R,1,<rshift>,1,1,521237,217
Control_TS_22_A,3,test,R,128,3,620,550,R,1,<rshift>,1,1,522237,236
Control_TS_22_A,3,test,R,129,1,620,350,R,1,<rshift>,1,1,523237,368
Control_TS_22_A,3,test,R,130,1,620,350,P,0,<rshift>,1,0,524238,442
Control_TS_22_A,3,test,R,131,2,820,350,R,1,<rshift>,1,1,525237,271
Control_TS_22_A,3,test,R,132,2,820,350,P,0,<rshift>,1,0,526239,321
Control_TS_22_A,3,test,R,133,2,820,350,R,1,<rshift>,1,1,527239,503
Control_TS_22_A,3,test,R,134,4,820,550,R,1,<rshift>,1,1,528237,350
Control_TS_22_A,3,test,R,135,3,620,550,R,1,<rshift>,1,1,529238,322
Control_TS_22_A,3,test,R,136,3,620,550,R,1,<rshift>,1,1,530239,184
Control_TS_22_A,3,test,R,137,1,620,350,R,1,<rshift>,1,1,531238,509
Control_TS_22_A,3,test,R,138,4,820,550,R,1,<rshift>,1,1,532237,365
Control_TS_22_A,3,test,R,139,2,820,350,R,1,<rshift>,1,1,533237,349
Control_TS_22_A,3,test,R,140,2,820,350,P,0,<rshift>,1,0,534239,345
Control_TS_22_A,3,test,R,141,1,620,350,R,1,<rshift>,1,1,535238,259
Control_TS_22_A,3,test,R,142,4,820,550,P,0,<rshift>,1,0,536240,383
Control_TS_22_A,3,test,R,143,3,620,550,R,1,<rshift>,1,1,537237,340
Control_TS_22_A,3,test,R,144,3,620,550,R,1,<rshift>,1,1,538239,339
Control_TS_22_A,3,test,R,145,1,620,350,R,1,<rshift>,1,1,539238,508
Control_TS_22_A,3,test,R,146,1,620,350,R,1,<rshift>,1,1,540237,402
Control_TS_22_A,3,test,R,147,3,620,550,R,1,<rshift>,1,1,541238,352
Control_TS_22_A,3,test,R,148,2,820,350,R,1,<rshift>,1,1,542237,331
Control_TS_22_A,3,test,R,149,3,620,550,R,1,<rshift>,1,1,543239,355
Control_TS_22_A,3,test,R,150,4,820,550,P,0,<rshift>,1,0,544237,420
Control_TS_22_A,3,test,R,151,3,620,550,R,1,<rshift>,1,1,545237,477
Control_TS_22_A,3,test,R,152,3,620,550,R,1,<rshift>,1,1,546239,449
Control_TS_22_A,3,test,R,153,2,820,350,P,0,<rshift>,1,0,547238,324
Control_TS_22_A,3,test,R,154,3,620,550,P,0,<rshift>,1,0,548239,262
Control_TS_22_A,3,test,R,155,3,620,550,R,1,<rshift>,1,1,549237,424
Control_TS_22_A,3,test,R,156,3,620,550,P,0,<rshift>,1,0,550237,346
Control_TS_22_A,3,test,R,157,4,820,550,R,1,<rshift>,1,1,551237,309
Control_TS_22_A,3,test,R,158,1,620,350,P,0,<rshift>,1,0,552238,323
Control_TS_22_A,3,test,R,159,2,820,350,R,1,<rshift>,1,1,553238,432
Control_TS_22_A,3,test,R,160,2,820,350,P,0,NONE,0,1,554238,950
Control_TS_22_A,3,test,R,161,1,620,350,R,1,<rshift>,1,1,555239,545
Control_TS_22_A,3,test,R,162,4,820,550,R,1,<rshift>,1,1,556240,404
Control_TS_22_A,3,test,R,163,2,820,350,R,1,<rshift>,1,1,557237,518
Control_TS_22_A,3,test,R,164,2,820,350,R,1,<rshift>,1,1,558239,366
Control_TS_22_A,3,test,R,165,1,620,350,R,1,<rshift>,1,1,559237,315
Control_TS_22_A,3,test,R,166,4,820,550,R,1,<rshift>,1,1,560238,274
Control_TS_22_A,3,test,R,167,4,820,550,R,1,<rshift>,1,1,561239,371
Control_TS_22_A,3,test,R,168,1,620,350,R,1,<rshift>,1,1,562239,314
Control_TS_22_A,3,test,R,169,2,820,350,R,1,<rshift>,1,1,563239,270
Control_TS_22_A,3,test,R,170,1,620,350,R,1,<rshift>,1,1,564237,376
Control_TS_22_A,3,test,R,171,3,620,550,R,1,<rshift>,1,1,565237,283
Control_TS_22_A,3,test,R,172,3,620,550,P,0,<rshift>,1,0,566237,387
Control_TS_22_A,3,test,R,173,3,620,550,P,0,<rshift>,1,0,567237,269
Control_TS_22_A,3,test,R,174,2,820,350,P,0,<rshift>,1,0,568238,192
Control_TS_22_A,3,test,R,175,1,620,350,R,1,<rshift>,1,1,569239,281
Control_TS_22_A,3,test,R,176,1,620,350,P,0,<rshift>,1,0,570237,365
Control_TS_22_A,3,test,R,177,2,820,350,R,1,<rshift>,1,1,571237,151
Control_TS_22_A,3,test,R,178,1,620,350,R,1,<rshift>,1,1,572238,431
Control_TS_22_A,3,test,R,179,4,820,550,R,1,<rshift>,1,1,573237,354
Control_TS_22_A,3,test,R,180,2,820,350,P,0,<rshift>,1,0,574240,435
Control_TS_22_A,3,test,R,181,2,820,350,R,1,<rshift>,1,1,575237,628
Control_TS_22_A,3,test,R,182,3,620,550,R,1,<rshift>,1,1,576237,368
Control_TS_22_A,3,test,R,183,2,820,350,P,0,<rshift>,1,0,577239,293
Control_TS_22_A,3,test,R,184,4,820,550,R,1,<rshift>,1,1,578239,463
Control_TS_22_A,3,test,R,185,3,620,550,R,1,<rshift>,1,1,579238,363
Control_TS_22_A,3,test,R,186,2,820,350,P,0,<rshift>,1,0,580239,325
Control_TS_22_A,3,test,R,187,3,620,550,R,1,<rshift>,1,1,581238,311
Control_TS_22_A,3,test,R,188,1,620,350,R,1,<rshift>,1,1,582237,443
Control_TS_22_A,3,test,R,189,1,620,350,R,1,<rshift>,1,1,583238,405
Control_TS_22_A,3,test,R,190,4,820,550,R,1,<rshift>,1,1,584239,472
Control_TS_22_A,3,test,R,191,1,620,350,P,0,<rshift>,1,0,585237,347
Control_TS_22_A,3,test,R,192,3,620,550,R,1,<rshift>,1,1,586237,221
Control_TS_22_A,3,test,R,193,4,820,550,R,1,<rshift>,1,1,587237,305
Control_TS_22_A,3,test,R,194,3,620,550,P,0,<rshift>,1,0,588237,410
Control_TS_22_A,3,test,R,195,4,820,550,R,1,<rshift>,1,1,589237,381
Control_TS_22_A,3,test,R,196,3,620,550,R,1,<rshift>,1,1,590238,506
Control_TS_22_A,3,test,R,197,3,620,550,R,1,<rshift>,1,1,591238,440
Control_TS_22_A,3,test,R,198,4,820,550,R,1,<rshift>,1,1,592238,360
Control_TS_22_A,3,test,R,199,2,820,350,R,1,<rshift>,1,1,593237,339
Control_TS_22_A,3,test,R,200,4,820,550,R,1,<rshift>,1,1,594237,347
Control_TS_22_A,3,test,R,201,4,820,550,R,1,<rshift>,1,1,595237,362
Control_TS_22_A,3,test,R,202,1,620,350,R,1,<rshift>,1,1,596239,372
Control_TS_22_A,3,test,R,203,3,620,550,R,1,<rshift>,1,1,597237,327
Control_TS_22_A,3,test,R,204,2,820,350,P,0,NONE,0,1,598239,950
Control_TS_22_A,3,test,R,205,4,820,550,R,1,<rshift>,1,1,599239,310
Control_TS_22_A,3,test,R,206,4,820,550,P,0,<rshift>,1,0,600237,455
Control_TS_22_A,3,test,R,207,1,620,350,R,1,<rshift>,1,1,601239,304
Control_TS_22_A,3,test,R,208,3,620,550,P,0,<rshift>,1,0,602237,367
Control_TS_22_A,3,test,R,209,1,620,350,R,1,<rshift>,1,1,603239,315
Control_TS_22_A,3,test,R,210,1,620,350,P,0,<rshift>,1,0,604238,443
Control_TS_22_A,3,test,R,211,4,820,550,R,1,<rshift>,1,1,605238,299
Control_TS_22_A,3,test,R,212,2,820,350,R,1,<rshift>,1,1,606237,338
Control_TS_22_A,3,test,R,213,4,820,550,R,1,<rshift>,1,1,607238,389
Control_TS_22_A,3,test,R,214,4,820,550,R,1,<rshift>,1,1,608238,330
Control_TS_22_A,3,test,R,215,3,620,550,R,1,<rshift>,1,1,609239,342
Control_TS_22_A,3,test,R,216,1,620,350,R,1,<rshift>,1,1,610239,353
Control_TS_22_A,3,test,R,217,4,820,550,R,1,<rshift>,1,1,611239,336
Control_TS_22_A,3,test,R,218,2,820,350,P,0,<rshift>,1,0,612239,293
Control_TS_22_A,3,test,R,219,4,820,550,R,1,<rshift>,1,1,613237,192
Control_TS_22_A,3,test,R,220,1,620,350,R,1,<rshift>,1,1,614237,271
Control_TS_22_A,3,test,R,221,2,820,350,R,1,<rshift>,1,1,615237,309
Control_TS_22_A,3,test,R,222,3,620,550,R,1,<rshift>,1,1,616237,342
Control_TS_22_A,3,test,R,223,2,820,350,R,1,<rshift>,1,1,617237,269
Control_TS_22_A,3,test,R,224,1,620,350,R,1,<rshift>,1,1,618238,148
Control_TS_22_A,3,test,R,225,1,620,350,R,1,<rshift>,1,1,619239,261
Control_TS_22_A,3,test,R,226,1,620,350,R,1,<rshift>,1,1,620238,247
Control_TS_22_A,3,test,R,227,2,820,350,R,1,<rshift>,1,1,621237,417
Control_TS_22_A,3,test,R,228,4,820,550,R,1,<rshift>,1,1,622239,332
Control_TS_22_A,3,test,R,229,1,620,350,R,1,<rshift>,1,1,623240,336
Control_TS_22_A,3,test,R,230,2,820,350,R,1,<rshift>,1,1,624239,294
Control_TS_22_A,3,test,R,231,2,820,350,P,0,NONE,0,1,625237,951
Control_TS_22_A,3,test,R,232,1,620,350,R,1,<rshift>,1,1,626239,391
Control_TS_22_A,3,test,R,233,1,620,350,R,1,<rshift>,1,1,627238,389
Control_TS_22_A,3,test,R,234,1,620,350,R,1,<rshift>,1,1,628239,358
Control_TS_22_A,3,test,R,235,4,820,550,P,0,<rshift>,1,0,629238,358
Control_TS_22_A,3,test,R,236,3,620,550,R,1,<rshift>,1,1,630237,245
Control_TS_22_A,3,test,R,237,2,820,350,R,1,<rshift>,1,1,631240,247
Control_TS_22_A,3,test,R,238,3,620,550,R,1,<rshift>,1,1,632238,389
Control_TS_22_A,3,test,R,239,2,820,350,R,1,<rshift>,1,1,633239,312
Control_TS_22_A,3,test,R,240,4,820,550,R,1,<rshift>,1,1,634238,305
Control_TS_22_A,3,test,R,241,3,620,550,R,1,<rshift>,1,1,635239,378
Control_TS_22_A,3,test,R,242,4,820,550,R,1,<rshift>,1,1,636238,337
Control_TS_22_A,3,test,R,243,4,820,550,R,1,<rshift>,1,1,637239,350
Control_TS_22_A,3,test,R,244,3,620,550,R,1,<rshift>,1,1,638239,303
Control_TS_22_A,3,test,R,245,3,620,550,R,1,<rshift>,1,1,639239,376
Control_TS_22_A,3,test,R,246,3,620,550,R,1,<rshift>,1,1,640239,300
Control_TS_22_A,3,test,R,247,3,620,550,P,0,<rshift>,1,0,641239,269
Control_TS_22_A,3,test,R,248,1,620,350,R,1,<rshift>,1,1,642237,225
Control_TS_22_A,3,test,R,249,4,820,550,P,0,<rshift>,1,0,643239,244
Control_TS_22_A,3,test,R,250,2,820,350,R,1,<rshift>,1,1,644237,245
Control_TS_22_A,3,test,R,251,1,620,350,R,1,<rshift>,1,1,645239,268
Control_TS_22_A,3,test,R,252,1,620,350,R,1,<rshift>,1,1,646237,313
Control_TS_22_A,3,test,R,253,3,620,550,R,1,<rshift>,1,1,647239,313
Control_TS_22_A,3,test,R,254,3,620,550,R,1,<rshift>,1,1,648239,377
Control_TS_22_A,3,test,R,255,4,820,550,R,1,<rshift>,1,1,649239,325
Control_TS_22_A,3,test,R,256,1,620,350,R,1,<rshift>,1,1,650240,479
Control_TS_22_A,3,test,R,257,4,820,550,P,0,<rshift>,1,0,651238,343
Control_TS_22_A,3,test,R,258,3,620,550,P,0,<rshift>,1,0,652239,446
Control_TS_22_A,3,test,R,259,1,620,350,P,0,NONE,0,1,653240,950
Control_TS_22_A,3,test,R,260,1,620,350,R,1,<rshift>,1,1,654238,418
Control_TS_22_A,3,test,R,261,3,620,550,R,1,<rshift>,1,1,655239,466
Control_TS_22_A,3,test,R,262,1,620,350,R,1,<rshift>,1,1,656238,454
Control_TS_22_A,3,test,R,263,1,620,350,P,0,NONE,0,1,657239,950
Control_TS_22_A,3,test,R,264,2,820,350,P,0,NONE,0,1,658237,950
Control_TS_22_A,3,test,R,265,2,820,350,R,1,<rshift>,1,1,659237,411
Control_TS_22_A,3,test,R,266,1,620,350,R,1,<rshift>,1,1,660237,380
Control_TS_22_A,3,test,R,267,2,820,350,R,1,<rshift>,1,1,661238,366
Control_TS_22_A,3,test,R,268,4,820,550,R,1,<rshift>,1,1,662237,582
Control_TS_22_A,3,test,R,269,4,820,550,R,1,<rshift>,1,1,663237,539
Control_TS_22_A,3,test,R,270,3,620,550,R,1,<rshift>,1,1,664237,385
Control_TS_22_A,3,test,R,271,3,620,550,R,1,<rshift>,1,1,665238,458
Control_TS_22_A,3,test,R,272,3,620,550,P,0,<rshift>,1,0,666237,425
Control_TS_22_A,3,test,R,273,2,820,350,P,0,NONE,0,1,667240,950
Control_TS_22_A,3,test,R,274,3,620,550,R,1,<rshift>,1,1,668238,556
Control_TS_22_A,3,test,R,275,1,620,350,P,0,<rshift>,1,0,669237,367
Control_TS_22_A,3,test,R,276,3,620,550,P,0,<rshift>,1,0,670239,372
Control_TS_22_A,3,test,R,277,2,820,350,R,1,<rshift>,1,1,671237,317
Control_TS_22_A,3,test,R,278,3,620,550,R,1,<rshift>,1,1,672238,454
Control_TS_22_A,3,test,R,279,2,820,350,R,1,<rshift>,1,1,673239,348
Control_TS_22_A,3,test,R,280,4,820,550,R,1,<rshift>,1,1,674238,619
Control_TS_22_A,3,test,R,281,2,820,350,R,1,<rshift>,1,1,675238,369
Control_TS_22_A,3,test,R,282,4,820,550,R,1,<rshift>,1,1,676239,373
Control_TS_22_A,3,test,R,283,1,620,350,R,1,<rshift>,1,1,677239,385
Control_TS_22_A,3,test,R,284,4,820,550,R,1,<rshift>,1,1,678239,384
Control_TS_22_A,3,test,R,285,4,820,550,R,1,<rshift>,1,1,679239,412
Control_TS_22_A,3,test,R,286,3,620,550,P,0,<rshift>,1,0,680239,393
Control_TS_22_A,3,test,R,287,3,620,550,P,0,<rshift>,1,0,681238,392
Control_TS_22_A,3,test,R,288,4,820,550,P,0,<rshift>,1,0,682237,363
Control_TS_22_A,3,test,R,289,3,620,550,R,1,<rshift>,1,1,683237,503
Control_TS_22_A,3,test,R,290,2,820,350,R,1,<rshift>,1,1,684237,308
Control_TS_22_A,3,test,R,291,3,620,550,R,1,<rshift>,1,1,685239,395
Control_TS_22_A,3,test,R,292,4,820,550,R,1,<rshift>,1,1,686240,418
Control_TS_22_A,3,test,R,293,2,820,350,R,1,<rshift>,1,1,687237,341
Control_TS_22_A,3,test,R,294,4,820,550,P,0,NONE,0,1,688238,950
Control_TS_22_A,3,test,R,295,2,820,350,P,0,NONE,0,1,689237,950
Control_TS_22_A,3,test,R,296,4,820,550,R,1,<rshift>,1,1,690238,422
Control_TS_22_A,3,test,R,297,3,620,550,R,1,<rshift>,1,1,691237,412
Control_TS_22_A,3,test,R,298,1,620,350,R,1,<rshift>,1,1,692237,381
Control_TS_22_A,3,test,R,299,1,620,350,R,1,<rshift>,1,1,693237,593
Control_TS_22_A,3,test,R,300,4,820,550,R,1,<rshift>,1,1,694237,317
