subnum,block,type,correctresponse,trial,choice,x,y,stim,present,response,responded,corr,starttime,rt
Control_TS_13_A,0,practice,P,1,1,620,350,P,1,<rshift>,1,1,20978,660
Control_TS_13_A,0,practice,P,2,1,620,350,P,1,<rshift>,1,1,21976,387
Control_TS_13_A,0,practice,P,3,1,620,350,R,0,NONE,0,1,22976,950
Control_TS_13_A,0,practice,P,4,2,820,350,P,1,<rshift>,1,1,23976,378
Control_TS_13_A,0,practice,P,5,2,820,350,P,1,<rshift>,1,1,24976,318
Control_TS_13_A,0,practice,P,6,1,620,350,R,0,NONE,0,1,25976,950
Control_TS_13_A,0,practice,P,7,4,820,550,P,1,<rshift>,1,1,26976,397
Control_TS_13_A,0,practice,P,8,3,620,550,P,1,<rshift>,1,1,27976,363
Control_TS_13_A,0,practice,P,9,1,620,350,P,1,<rshift>,1,1,28976,320
Control_TS_13_A,0,practice,P,10,3,620,550,P,1,<rshift>,1,1,29976,321
Control_TS_13_A,1,test,P,1,4,820,550,P,1,<rshift>,1,1,35926,434
Control_TS_13_A,1,test,P,2,4,820,550,P,1,<rshift>,1,1,36926,326
Control_TS_13_A,1,test,P,3,3,620,550,P,1,<rshift>,1,1,37926,343
Control_TS_13_A,1,test,P,4,3,620,550,P,1,<rshift>,1,1,38926,325
Control_TS_13_A,1,test,P,5,2,820,350,P,1,<rshift>,1,1,39927,373
Control_TS_13_A,1,test,P,6,3,620,550,R,0,NONE,0,1,40926,950
Control_TS_13_A,1,test,P,7,3,620,550,P,1,<rshift>,1,1,41926,453
Control_TS_13_A,1,test,P,8,2,820,350,P,1,<rshift>,1,1,42926,328
Control_TS_13_A,1,test,P,9,3,620,550,R,0,NONE,0,1,43926,950
Control_TS_13_A,1,test,P,10,4,820,550,R,0,<rshift>,1,0,44926,322
Control_TS_13_A,1,test,P,11,1,620,350,R,0,<rshift>,1,0,45926,356
Control_TS_13_A,1,test,P,12,4,820,550,P,1,<rshift>,1,1,46926,425
Control_TS_13_A,1,test,P,13,2,820,350,P,1,<rshift>,1,1,47926,376
Control_TS_13_A,1,test,P,14,4,820,550,P,1,<rshift>,1,1,48926,356
Control_TS_13_A,1,test,P,15,3,620,550,P,1,<rshift>,1,1,49926,419
Control_TS_13_A,1,test,P,16,2,820,350,P,1,<rshift>,1,1,50926,350
Control_TS_13_A,1,test,P,17,2,820,350,P,1,<rshift>,1,1,51926,376
Control_TS_13_A,1,test,P,18,3,620,550,P,1,<rshift>,1,1,52926,425
Control_TS_13_A,1,test,P,19,4,820,550,P,1,<rshift>,1,1,53926,306
Control_TS_13_A,1,test,P,20,3,620,550,R,0,<rshift>,1,0,54926,343
Control_TS_13_A,1,test,P,21,1,620,350,P,1,<rshift>,1,1,55926,466
Control_TS_13_A,1,test,P,22,2,820,350,P,1,<rshift>,1,1,56926,406
Control_TS_13_A,1,test,P,23,2,820,350,P,1,<rshift>,1,1,57926,354
Control_TS_13_A,1,test,P,24,1,620,350,R,0,NONE,0,1,58926,950
Control_TS_13_A,1,test,P,25,2,820,350,P,1,<rshift>,1,1,59926,358
Control_TS_13_A,1,test,P,26,4,820,550,P,1,<rshift>,1,1,60926,329
Control_TS_13_A,1,test,P,27,4,820,550,P,1,<rshift>,1,1,61926,345
Control_TS_13_A,1,test,P,28,1,620,350,P,1,<rshift>,1,1,62926,372
Control_TS_13_A,1,test,P,29,1,620,350,R,0,NONE,0,1,63926,950
Control_TS_13_A,1,test,P,30,1,620,350,P,1,<rshift>,1,1,64926,356
Control_TS_13_A,1,test,P,31,3,620,550,P,1,<rshift>,1,1,65926,319
Control_TS_13_A,1,test,P,32,2,820,350,P,1,<rshift>,1,1,66926,389
Control_TS_13_A,1,test,P,33,4,820,550,P,1,<rshift>,1,1,67926,343
Control_TS_13_A,1,test,P,34,2,820,350,P,1,<rshift>,1,1,68926,407
Control_TS_13_A,1,test,P,35,4,820,550,P,1,<rshift>,1,1,69926,368
Control_TS_13_A,1,test,P,36,2,820,350,P,1,<rshift>,1,1,70926,354
Control_TS_13_A,1,test,P,37,4,820,550,P,1,<rshift>,1,1,71926,399
Control_TS_13_A,1,test,P,38,3,620,550,P,1,<rshift>,1,1,72926,395
Control_TS_13_A,1,test,P,39,4,820,550,P,1,<rshift>,1,1,73926,403
Control_TS_13_A,1,test,P,40,2,820,350,R,0,<rshift>,1,0,74926,453
Control_TS_13_A,1,test,P,41,4,820,550,R,0,<rshift>,1,0,75926,395
Control_TS_13_A,1,test,P,42,3,620,550,P,1,<rshift>,1,1,76926,453
Control_TS_13_A,1,test,P,43,3,620,550,P,1,<rshift>,1,1,77926,449
Control_TS_13_A,1,test,P,44,3,620,550,P,1,<rshift>,1,1,78926,389
Control_TS_13_A,1,test,P,45,2,820,350,P,1,<rshift>,1,1,79926,405
Control_TS_13_A,1,test,P,46,3,620,550,P,1,<rshift>,1,1,80926,356
Control_TS_13_A,1,test,P,47,1,620,350,P,1,<rshift>,1,1,81926,409
Control_TS_13_A,1,test,P,48,1,620,350,P,1,<rshift>,1,1,82926,398
Control_TS_13_A,1,test,P,49,1,620,350,P,1,<rshift>,1,1,83927,364
Control_TS_13_A,1,test,P,50,3,620,550,P,1,<rshift>,1,1,84926,381
Control_TS_13_A,1,test,P,51,3,620,550,P,1,<rshift>,1,1,85926,435
Control_TS_13_A,1,test,P,52,1,620,350,P,1,<rshift>,1,1,86926,384
Control_TS_13_A,1,test,P,53,4,820,550,P,1,<rshift>,1,1,87926,515
Control_TS_13_A,1,test,P,54,4,820,550,P,1,<rshift>,1,1,88926,395
Control_TS_13_A,1,test,P,55,3,620,550,P,1,<rshift>,1,1,89926,378
Control_TS_13_A,1,test,P,56,3,620,550,R,0,NONE,0,1,90926,950
Control_TS_13_A,1,test,P,57,2,820,350,P,1,<rshift>,1,1,91926,460
Control_TS_13_A,1,test,P,58,2,820,350,P,1,<rshift>,1,1,92926,408
Control_TS_13_A,1,test,P,59,2,820,350,P,1,<rshift>,1,1,93926,345
Control_TS_13_A,1,test,P,60,4,820,550,P,1,<rshift>,1,1,94926,339
Control_TS_13_A,1,test,P,61,3,620,550,P,1,<rshift>,1,1,95926,374
Control_TS_13_A,1,test,P,62,2,820,350,P,1,<rshift>,1,1,96926,336
Control_TS_13_A,1,test,P,63,2,820,350,P,1,<rshift>,1,1,97926,330
Control_TS_13_A,1,test,P,64,4,820,550,P,1,<rshift>,1,1,98926,362
Control_TS_13_A,1,test,P,65,2,820,350,R,0,NONE,0,1,99926,950
Control_TS_13_A,1,test,P,66,4,820,550,P,1,<rshift>,1,1,100926,350
Control_TS_13_A,1,test,P,67,1,620,350,R,0,<rshift>,1,0,101926,416
Control_TS_13_A,1,test,P,68,3,620,550,P,1,<rshift>,1,1,102926,655
Control_TS_13_A,1,test,P,69,3,620,550,R,0,<rshift>,1,0,103926,360
Control_TS_13_A,1,test,P,70,3,620,550,P,1,<rshift>,1,1,104925,351
Control_TS_13_A,1,test,P,71,2,820,350,R,0,<rshift>,1,0,105926,323
Control_TS_13_A,1,test,P,72,1,620,350,P,1,<rshift>,1,1,106926,387
Control_TS_13_A,1,test,P,73,1,620,350,R,0,NONE,0,1,107926,950
Control_TS_13_A,1,test,P,74,2,820,350,P,1,<rshift>,1,1,108926,369
Control_TS_13_A,1,test,P,75,3,620,550,P,1,<rshift>,1,1,109926,394
Control_TS_13_A,1,test,P,76,4,820,550,R,0,NONE,0,1,110926,950
Control_TS_13_A,1,test,P,77,4,820,550,P,1,<rshift>,1,1,111926,371
Control_TS_13_A,1,test,P,78,2,820,350,R,0,NONE,0,1,112926,950
Control_TS_13_A,1,test,P,79,2,820,350,R,0,NONE,0,1,113926,950
Control_TS_13_A,1,test,P,80,2,820,350,R,0,NONE,0,1,114926,950
Control_TS_13_A,1,test,P,81,2,820,350,P,1,<rshift>,1,1,115926,386
Control_TS_13_A,1,test,P,82,1,620,350,P,1,<rshift>,1,1,116926,322
Control_TS_13_A,1,test,P,83,4,820,550,P,1,<rshift>,1,1,117926,402
Control_TS_13_A,1,test,P,84,3,620,550,P,1,<rshift>,1,1,118926,339
Control_TS_13_A,1,test,P,85,3,620,550,P,1,<rshift>,1,1,119926,331
Control_TS_13_A,1,test,P,86,4,820,550,P,1,<rshift>,1,1,120926,478
Control_TS_13_A,1,test,P,87,3,620,550,P,1,<rshift>,1,1,121926,384
Control_TS_13_A,1,test,P,88,2,820,350,R,0,NONE,0,1,122926,950
Control_TS_13_A,1,test,P,89,4,820,550,P,1,<rshift>,1,1,123926,403
Control_TS_13_A,1,test,P,90,2,820,350,P,1,<rshift>,1,1,124926,442
Control_TS_13_A,1,test,P,91,3,620,550,P,1,<rshift>,1,1,125926,398
Control_TS_13_A,1,test,P,92,2,820,350,P,1,<rshift>,1,1,126926,411
Control_TS_13_A,1,test,P,93,1,620,350,P,1,<rshift>,1,1,127926,358
Control_TS_13_A,1,test,P,94,2,820,350,P,1,<rshift>,1,1,128926,325
Control_TS_13_A,1,test,P,95,2,820,350,P,1,<rshift>,1,1,129926,343
Control_TS_13_A,1,test,P,96,1,620,350,P,1,<rshift>,1,1,130926,342
Control_TS_13_A,1,test,P,97,4,820,550,P,1,<rshift>,1,1,131926,424
Control_TS_13_A,1,test,P,98,2,820,350,P,1,<rshift>,1,1,132926,308
Control_TS_13_A,1,test,P,99,3,620,550,P,1,<rshift>,1,1,133925,271
Control_TS_13_A,1,test,P,100,3,620,550,R,0,<rshift>,1,0,134926,325
Control_TS_13_A,1,test,P,101,3,620,550,P,1,<rshift>,1,1,135926,466
Control_TS_13_A,1,test,P,102,2,820,350,P,1,<rshift>,1,1,136926,368
Control_TS_13_A,1,test,P,103,2,820,350,P,1,<rshift>,1,1,137926,338
Control_TS_13_A,1,test,P,104,2,820,350,P,1,<rshift>,1,1,138926,354
Control_TS_13_A,1,test,P,105,4,820,550,P,1,<rshift>,1,1,139926,334
Control_TS_13_A,1,test,P,106,1,620,350,P,1,<rshift>,1,1,140926,347
Control_TS_13_A,1,test,P,107,1,620,350,P,1,<rshift>,1,1,141926,359
Control_TS_13_A,1,test,P,108,2,820,350,R,0,NONE,0,1,142926,950
Control_TS_13_A,1,test,P,109,4,820,550,P,1,<rshift>,1,1,143926,348
Control_TS_13_A,1,test,P,110,2,820,350,P,1,<rshift>,1,1,144926,362
Control_TS_13_A,1,test,P,111,3,620,550,P,1,<rshift>,1,1,145926,651
Control_TS_13_A,1,test,P,112,4,820,550,P,1,<rshift>,1,1,146926,331
Control_TS_13_A,1,test,P,113,3,620,550,P,1,<rshift>,1,1,147926,333
Control_TS_13_A,1,test,P,114,3,620,550,R,0,NONE,0,1,148926,950
Control_TS_13_A,1,test,P,115,2,820,350,R,0,<rshift>,1,0,149926,311
Control_TS_13_A,1,test,P,116,4,820,550,P,1,<rshift>,1,1,150926,375
Control_TS_13_A,1,test,P,117,4,820,550,R,0,NONE,0,1,151926,950
Control_TS_13_A,1,test,P,118,3,620,550,P,1,<rshift>,1,1,152926,389
Control_TS_13_A,1,test,P,119,3,620,550,R,0,NONE,0,1,153926,950
Control_TS_13_A,1,test,P,120,4,820,550,P,1,<rshift>,1,1,154926,325
Control_TS_13_A,1,test,P,121,2,820,350,P,1,<rshift>,1,1,155926,351
Control_TS_13_A,1,test,P,122,2,820,350,P,1,<rshift>,1,1,156926,336
Control_TS_13_A,1,test,P,123,2,820,350,P,1,<rshift>,1,1,157926,357
Control_TS_13_A,1,test,P,124,2,820,350,P,1,<rshift>,1,1,158926,338
Control_TS_13_A,1,test,P,125,1,620,350,P,1,<rshift>,1,1,159926,362
Control_TS_13_A,1,test,P,126,4,820,550,P,1,<rshift>,1,1,160926,361
Control_TS_13_A,1,test,P,127,2,820,350,P,1,<rshift>,1,1,161926,442
Control_TS_13_A,1,test,P,128,4,820,550,R,0,<rshift>,1,0,162926,295
Control_TS_13_A,1,test,P,129,4,820,550,P,1,<rshift>,1,1,163926,360
Control_TS_13_A,1,test,P,130,3,620,550,P,1,<rshift>,1,1,164926,413
Control_TS_13_A,1,test,P,131,3,620,550,P,1,<rshift>,1,1,165926,423
Control_TS_13_A,1,test,P,132,4,820,550,P,1,<rshift>,1,1,166926,383
Control_TS_13_A,1,test,P,133,2,820,350,P,1,<rshift>,1,1,167926,333
Control_TS_13_A,1,test,P,134,2,820,350,P,1,<rshift>,1,1,168926,305
Control_TS_13_A,1,test,P,135,3,620,550,R,0,<rshift>,1,0,169926,316
Control_TS_13_A,1,test,P,136,2,820,350,P,1,<rshift>,1,1,170926,403
Control_TS_13_A,1,test,P,137,2,820,350,P,1,<rshift>,1,1,171926,315
Control_TS_13_A,1,test,P,138,4,820,550,P,1,<rshift>,1,1,172926,351
Control_TS_13_A,1,test,P,139,1,620,350,P,1,<rshift>,1,1,173926,335
Control_TS_13_A,1,test,P,140,1,620,350,R,0,NONE,0,1,174926,950
Control_TS_13_A,1,test,P,141,4,820,550,P,1,<rshift>,1,1,175926,376
Control_TS_13_A,1,test,P,142,2,820,350,P,1,<rshift>,1,1,176926,329
Control_TS_13_A,1,test,P,143,2,820,350,R,0,<rshift>,1,0,177926,321
Control_TS_13_A,1,test,P,144,1,620,350,P,1,<rshift>,1,1,178926,391
Control_TS_13_A,1,test,P,145,4,820,550,P,1,<rshift>,1,1,179926,339
Control_TS_13_A,1,test,P,146,1,620,350,R,0,NONE,0,1,180926,950
Control_TS_13_A,1,test,P,147,2,820,350,R,0,<rshift>,1,0,181926,339
Control_TS_13_A,1,test,P,148,1,620,350,P,1,<rshift>,1,1,182926,402
Control_TS_13_A,1,test,P,149,4,820,550,R,0,NONE,0,1,183926,950
Control_TS_13_A,1,test,P,150,1,620,350,P,1,<rshift>,1,1,184926,376
Control_TS_13_A,1,test,P,151,1,620,350,P,1,<rshift>,1,1,185926,404
Control_TS_13_A,1,test,P,152,4,820,550,P,1,<rshift>,1,1,186926,461
Control_TS_13_A,1,test,P,153,1,620,350,P,1,<rshift>,1,1,187926,453
Control_TS_13_A,1,test,P,154,4,820,550,R,0,NONE,0,1,188926,950
Control_TS_13_A,1,test,P,155,3,620,550,P,1,<rshift>,1,1,189926,363
Control_TS_13_A,1,test,P,156,3,620,550,P,1,<rshift>,1,1,190926,371
Control_TS_13_A,1,test,P,157,3,620,550,R,0,NONE,0,1,191926,950
Control_TS_13_A,1,test,P,158,4,820,550,P,1,<rshift>,1,1,192926,389
Control_TS_13_A,1,test,P,159,3,620,550,P,1,<rshift>,1,1,193926,467
Control_TS_13_A,1,test,P,160,1,620,350,R,0,NONE,0,1,194926,950
Control_TS_13_A,1,test,P,161,2,820,350,P,1,<rshift>,1,1,195926,356
Control_TS_13_A,1,test,P,162,2,820,350,P,1,<rshift>,1,1,196926,342
Control_TS_13_A,1,test,P,163,3,620,550,P,1,<rshift>,1,1,197926,461
Control_TS_13_A,1,test,P,164,4,820,550,P,1,<rshift>,1,1,198926,299
Control_TS_13_A,1,test,P,165,4,820,550,P,1,<rshift>,1,1,199926,355
Control_TS_13_A,1,test,P,166,3,620,550,P,1,<rshift>,1,1,200926,353
Control_TS_13_A,1,test,P,167,4,820,550,P,1,<rshift>,1,1,201926,351
Control_TS_13_A,1,test,P,168,3,620,550,P,1,<rshift>,1,1,202926,362
Control_TS_13_A,1,test,P,169,4,820,550,R,0,NONE,0,1,203926,950
Control_TS_13_A,1,test,P,170,4,820,550,P,1,<rshift>,1,1,204926,481
Control_TS_13_A,1,test,P,171,3,620,550,P,1,<rshift>,1,1,205926,280
Control_TS_13_A,1,test,P,172,1,620,350,P,1,<rshift>,1,1,206926,367
Control_TS_13_A,1,test,P,173,4,820,550,P,1,<rshift>,1,1,207926,355
Control_TS_13_A,1,test,P,174,2,820,350,P,1,<rshift>,1,1,208926,335
Control_TS_13_A,1,test,P,175,1,620,350,P,1,<rshift>,1,1,209926,338
Control_TS_13_A,1,test,P,176,2,820,350,P,1,<rshift>,1,1,210926,350
Control_TS_13_A,1,test,P,177,4,820,550,P,1,<rshift>,1,1,211926,318
Control_TS_13_A,1,test,P,178,3,620,550,P,1,<rshift>,1,1,212926,350
Control_TS_13_A,1,test,P,179,1,620,350,P,1,<rshift>,1,1,213926,346
Control_TS_13_A,1,test,P,180,4,820,550,P,1,<rshift>,1,1,214926,335
Control_TS_13_A,1,test,P,181,4,820,550,P,1,<rshift>,1,1,215926,431
Control_TS_13_A,1,test,P,182,2,820,350,P,1,<rshift>,1,1,216926,337
Control_TS_13_A,1,test,P,183,2,820,350,P,1,<rshift>,1,1,217926,344
Control_TS_13_A,1,test,P,184,4,820,550,P,1,<rshift>,1,1,218926,326
Control_TS_13_A,1,test,P,185,2,820,350,R,0,NONE,0,1,219926,950
Control_TS_13_A,1,test,P,186,2,820,350,P,1,<rshift>,1,1,220926,343
Control_TS_13_A,1,test,P,187,1,620,350,P,1,<rshift>,1,1,221925,338
Control_TS_13_A,1,test,P,188,3,620,550,P,1,<rshift>,1,1,222926,321
Control_TS_13_A,1,test,P,189,1,620,350,P,1,<rshift>,1,1,223926,352
Control_TS_13_A,1,test,P,190,3,620,550,P,1,<rshift>,1,1,224926,312
Control_TS_13_A,1,test,P,191,2,820,350,P,1,<rshift>,1,1,225926,408
Control_TS_13_A,1,test,P,192,2,820,350,P,1,<rshift>,1,1,226926,350
Control_TS_13_A,1,test,P,193,3,620,550,P,1,<rshift>,1,1,227926,294
Control_TS_13_A,1,test,P,194,1,620,350,P,1,<rshift>,1,1,228926,361
Control_TS_13_A,1,test,P,195,4,820,550,P,1,<rshift>,1,1,229926,278
Control_TS_13_A,1,test,P,196,4,820,550,R,0,<rshift>,1,0,230926,302
Control_TS_13_A,1,test,P,197,1,620,350,P,1,<rshift>,1,1,231926,369
Control_TS_13_A,1,test,P,198,2,820,350,P,1,<rshift>,1,1,232926,304
Control_TS_13_A,1,test,P,199,3,620,550,P,1,<rshift>,1,1,233926,275
Control_TS_13_A,1,test,P,200,1,620,350,P,1,<rshift>,1,1,234926,353
Control_TS_13_A,1,test,P,201,1,620,350,P,1,<rshift>,1,1,235926,321
Control_TS_13_A,1,test,P,202,4,820,550,R,0,<rshift>,1,0,236926,313
Control_TS_13_A,1,test,P,203,4,820,550,P,1,<rshift>,1,1,237926,597
Control_TS_13_A,1,test,P,204,1,620,350,P,1,<rshift>,1,1,238926,330
Control_TS_13_A,1,test,P,205,2,820,350,P,1,<rshift>,1,1,239926,323
Control_TS_13_A,1,test,P,206,4,820,550,P,1,<rshift>,1,1,240926,340
Control_TS_13_A,1,test,P,207,1,620,350,P,1,<rshift>,1,1,241926,356
Control_TS_13_A,1,test,P,208,4,820,550,P,1,<rshift>,1,1,242926,330
Control_TS_13_A,1,test,P,209,3,620,550,P,1,<rshift>,1,1,243926,342
Control_TS_13_A,1,test,P,210,3,620,550,P,1,<rshift>,1,1,244926,317
Control_TS_13_A,1,test,P,211,2,820,350,R,0,<rshift>,1,0,245926,335
Control_TS_13_A,1,test,P,212,2,820,350,P,1,<rshift>,1,1,246926,335
Control_TS_13_A,1,test,P,213,1,620,350,P,1,<rshift>,1,1,247926,367
Control_TS_13_A,1,test,P,214,1,620,350,R,0,NONE,0,1,248926,950
Control_TS_13_A,1,test,P,215,3,620,550,P,1,<rshift>,1,1,249926,416
Control_TS_13_A,1,test,P,216,2,820,350,P,1,<rshift>,1,1,250926,305
Control_TS_13_A,1,test,P,217,4,820,550,P,1,<rshift>,1,1,251926,339
Control_TS_13_A,1,test,P,218,4,820,550,P,1,<rshift>,1,1,252926,309
Control_TS_13_A,1,test,P,219,1,620,350,R,0,NONE,0,1,253926,950
Control_TS_13_A,1,test,P,220,2,820,350,R,0,NONE,0,1,254926,950
Control_TS_13_A,1,test,P,221,1,620,350,P,1,<rshift>,1,1,255926,400
Control_TS_13_A,1,test,P,222,1,620,350,P,1,<rshift>,1,1,256926,476
Control_TS_13_A,1,test,P,223,3,620,550,P,1,<rshift>,1,1,257926,359
Control_TS_13_A,1,test,P,224,2,820,350,P,1,<rshift>,1,1,258926,338
Control_TS_13_A,1,test,P,225,2,820,350,P,1,<rshift>,1,1,259926,519
Control_TS_13_A,1,test,P,226,1,620,350,P,1,<rshift>,1,1,260926,322
Control_TS_13_A,1,test,P,227,3,620,550,R,0,<rshift>,1,0,261926,315
Control_TS_13_A,1,test,P,228,1,620,350,R,0,NONE,0,1,262926,950
Control_TS_13_A,1,test,P,229,1,620,350,P,1,<rshift>,1,1,263926,553
Control_TS_13_A,1,test,P,230,1,620,350,P,1,<rshift>,1,1,264926,425
Control_TS_13_A,1,test,P,231,2,820,350,P,1,<rshift>,1,1,265926,515
Control_TS_13_A,1,test,P,232,4,820,550,R,0,<rshift>,1,0,266926,336
Control_TS_13_A,1,test,P,233,1,620,350,P,1,<rshift>,1,1,267926,334
Control_TS_13_A,1,test,P,234,3,620,550,P,1,<rshift>,1,1,268926,308
Control_TS_13_A,1,test,P,235,3,620,550,P,1,<rshift>,1,1,269926,425
Control_TS_13_A,1,test,P,236,3,620,550,P,1,<rshift>,1,1,270926,319
Control_TS_13_A,1,test,P,237,3,620,550,R,0,<rshift>,1,0,271926,349
Control_TS_13_A,1,test,P,238,4,820,550,P,1,<rshift>,1,1,272925,393
Control_TS_13_A,1,test,P,239,1,620,350,P,1,<rshift>,1,1,273926,362
Control_TS_13_A,1,test,P,240,2,820,350,P,1,<rshift>,1,1,274926,454
Control_TS_13_A,1,test,P,241,3,620,550,P,1,<rshift>,1,1,275926,357
Control_TS_13_A,1,test,P,242,2,820,350,P,1,<rshift>,1,1,276926,531
Control_TS_13_A,1,test,P,243,4,820,550,P,1,<rshift>,1,1,277926,354
Control_TS_13_A,1,test,P,244,1,620,350,P,1,<rshift>,1,1,278926,372
Control_TS_13_A,1,test,P,245,2,820,350,P,1,<rshift>,1,1,279926,368
Control_TS_13_A,1,test,P,246,1,620,350,P,1,<rshift>,1,1,280926,385
Control_TS_13_A,1,test,P,247,1,620,350,P,1,<rshift>,1,1,281926,351
Control_TS_13_A,1,test,P,248,3,620,550,P,1,<rshift>,1,1,282926,402
Control_TS_13_A,1,test,P,249,3,620,550,P,1,<rshift>,1,1,283926,367
Control_TS_13_A,1,test,P,250,4,820,550,P,1,<rshift>,1,1,284926,341
Control_TS_13_A,1,test,P,251,3,620,550,R,0,NONE,0,1,285926,950
Control_TS_13_A,1,test,P,252,2,820,350,R,0,<rshift>,1,0,286926,351
Control_TS_13_A,1,test,P,253,4,820,550,P,1,<rshift>,1,1,287926,344
Control_TS_13_A,1,test,P,254,2,820,350,P,1,<rshift>,1,1,288926,406
Control_TS_13_A,1,test,P,255,4,820,550,R,0,<rshift>,1,0,289926,359
Control_TS_13_A,1,test,P,256,1,620,350,P,1,<rshift>,1,1,290926,448
Control_TS_13_A,1,test,P,257,3,620,550,P,1,<rshift>,1,1,291926,358
Control_TS_13_A,1,test,P,258,4,820,550,P,1,<rshift>,1,1,292926,368
Control_TS_13_A,1,test,P,259,3,620,550,P,1,<rshift>,1,1,293926,339
Control_TS_13_A,1,test,P,260,3,620,550,P,1,<rshift>,1,1,294926,338
Control_TS_13_A,1,test,P,261,3,620,550,P,1,<rshift>,1,1,295926,372
Control_TS_13_A,1,test,P,262,3,620,550,P,1,<rshift>,1,1,296926,318
Control_TS_13_A,1,test,P,263,2,820,350,R,0,NONE,0,1,297926,950
Control_TS_13_A,1,test,P,264,3,620,550,P,1,<rshift>,1,1,298926,423
Control_TS_13_A,1,test,P,265,1,620,350,P,1,<rshift>,1,1,299926,393
Control_TS_13_A,1,test,P,266,4,820,550,P,1,<rshift>,1,1,300926,421
Control_TS_13_A,1,test,P,267,1,620,350,R,0,NONE,0,1,301926,950
Control_TS_13_A,1,test,P,268,1,620,350,P,1,<rshift>,1,1,302926,365
Control_TS_13_A,1,test,P,269,3,620,550,P,1,<rshift>,1,1,303926,446
Control_TS_13_A,1,test,P,270,4,820,550,P,1,<rshift>,1,1,304926,364
Control_TS_13_A,1,test,P,271,1,620,350,P,1,<rshift>,1,1,305926,388
Control_TS_13_A,1,test,P,272,3,620,550,P,1,<rshift>,1,1,306926,404
Control_TS_13_A,1,test,P,273,2,820,350,P,1,<rshift>,1,1,307926,527
Control_TS_13_A,1,test,P,274,2,820,350,P,1,<rshift>,1,1,308926,378
Control_TS_13_A,1,test,P,275,1,620,350,P,1,<rshift>,1,1,309926,322
Control_TS_13_A,1,test,P,276,4,820,550,P,1,<rshift>,1,1,310926,329
Control_TS_13_A,1,test,P,277,4,820,550,R,0,NONE,0,1,311926,950
Control_TS_13_A,1,test,P,278,3,620,550,P,1,<rshift>,1,1,312926,479
Control_TS_13_A,1,test,P,279,4,820,550,P,1,<rshift>,1,1,313926,342
Control_TS_13_A,1,test,P,280,3,620,550,P,1,<rshift>,1,1,314926,293
Control_TS_13_A,1,test,P,281,2,820,350,R,0,<rshift>,1,0,315926,347
Control_TS_13_A,1,test,P,282,1,620,350,P,1,<rshift>,1,1,316926,410
Control_TS_13_A,1,test,P,283,3,620,550,R,0,NONE,0,1,317926,950
Control_TS_13_A,1,test,P,284,1,620,350,P,1,<rshift>,1,1,318926,349
Control_TS_13_A,1,test,P,285,3,620,550,P,1,<rshift>,1,1,319926,432
Control_TS_13_A,1,test,P,286,1,620,350,P,1,<rshift>,1,1,320926,514
Control_TS_13_A,1,test,P,287,4,820,550,P,1,<rshift>,1,1,321926,426
Control_TS_13_A,1,test,P,288,3,620,550,R,0,NONE,0,1,322926,950
Control_TS_13_A,1,test,P,289,3,620,550,R,0,<rshift>,1,0,323926,338
Control_TS_13_A,1,test,P,290,2,820,350,P,1,<rshift>,1,1,324926,328
Control_TS_13_A,1,test,P,291,4,820,550,P,1,<rshift>,1,1,325926,405
Control_TS_13_A,1,test,P,292,1,620,350,P,1,<rshift>,1,1,326926,462
Control_TS_13_A,1,test,P,293,1,620,350,P,1,<rshift>,1,1,327926,616
Control_TS_13_A,1,test,P,294,2,820,350,P,1,<rshift>,1,1,328926,272
Control_TS_13_A,1,test,P,295,4,820,550,P,1,<rshift>,1,1,329926,326
Control_TS_13_A,1,test,P,296,4,820,550,R,0,<rshift>,1,0,330926,323
Control_TS_13_A,1,test,P,297,1,620,350,P,1,<rshift>,1,1,331926,338
Control_TS_13_A,1,test,P,298,1,620,350,P,1,<rshift>,1,1,332926,354
Control_TS_13_A,1,test,P,299,3,620,550,P,1,<rshift>,1,1,333926,399
Control_TS_13_A,1,test,P,300,4,820,550,R,0,<rshift>,1,0,334926,370
Control_TS_13_A,2,practice,R,1,3,620,550,R,1,<rshift>,1,1,362931,641
Control_TS_13_A,2,practice,R,2,4,820,550,R,1,<rshift>,1,1,363931,396
Control_TS_13_A,2,practice,R,3,2,820,350,P,0,NONE,0,1,364931,950
Control_TS_13_A,2,practice,R,4,1,620,350,R,1,<rshift>,1,1,365931,424
Control_TS_13_A,2,practice,R,5,2,820,350,P,0,<rshift>,1,0,366931,340
Control_TS_13_A,2,practice,R,6,3,620,550,R,1,<rshift>,1,1,368332,427
Control_TS_13_A,2,practice,R,7,1,620,350,R,1,<rshift>,1,1,368931,454
Control_TS_13_A,2,practice,R,8,2,820,350,R,1,<rshift>,1,1,369931,366
Control_TS_13_A,2,practice,R,9,4,820,550,R,1,<rshift>,1,1,370931,360
Control_TS_13_A,2,practice,R,10,2,820,350,R,1,<rshift>,1,1,371931,342
Control_TS_13_A,3,test,R,1,1,620,350,R,1,<rshift>,1,1,377303,417
Control_TS_13_A,3,test,R,2,1,620,350,R,1,<rshift>,1,1,378303,365
Control_TS_13_A,3,test,R,3,3,620,550,R,1,<rshift>,1,1,379303,337
Control_TS_13_A,3,test,R,4,3,620,550,R,1,<rshift>,1,1,380303,350
Control_TS_13_A,3,test,R,5,3,620,550,R,1,<rshift>,1,1,381303,332
Control_TS_13_A,3,test,R,6,1,620,350,R,1,<rshift>,1,1,382303,390
Control_TS_13_A,3,test,R,7,1,620,350,R,1,<rshift>,1,1,383303,336
Control_TS_13_A,3,test,R,8,3,620,550,R,1,<rshift>,1,1,384302,362
Control_TS_13_A,3,test,R,9,3,620,550,R,1,<rshift>,1,1,385303,384
Control_TS_13_A,3,test,R,10,1,620,350,R,1,<rshift>,1,1,386303,367
Control_TS_13_A,3,test,R,11,1,620,350,R,1,<rshift>,1,1,387303,347
Control_TS_13_A,3,test,R,12,1,620,350,R,1,<rshift>,1,1,388303,342
Control_TS_13_A,3,test,R,13,4,820,550,R,1,<rshift>,1,1,389303,431
Control_TS_13_A,3,test,R,14,2,820,350,R,1,<rshift>,1,1,390303,365
Control_TS_13_A,3,test,R,15,2,820,350,R,1,<rshift>,1,1,391303,342
Control_TS_13_A,3,test,R,16,1,620,350,P,0,NONE,0,1,392303,950
Control_TS_13_A,3,test,R,17,4,820,550,R,1,<rshift>,1,1,393303,333
Control_TS_13_A,3,test,R,18,3,620,550,R,1,<rshift>,1,1,394303,328
Control_TS_13_A,3,test,R,19,4,820,550,R,1,<rshift>,1,1,395303,390
Control_TS_13_A,3,test,R,20,1,620,350,R,1,<rshift>,1,1,396303,375
Control_TS_13_A,3,test,R,21,4,820,550,R,1,<rshift>,1,1,397303,317
Control_TS_13_A,3,test,R,22,3,620,550,R,1,<rshift>,1,1,398302,324
Control_TS_13_A,3,test,R,23,4,820,550,P,0,<rshift>,1,0,399303,352
Control_TS_13_A,3,test,R,24,1,620,350,P,0,<rshift>,1,0,400303,328
Control_TS_13_A,3,test,R,25,1,620,350,R,1,<rshift>,1,1,401303,388
Control_TS_13_A,3,test,R,26,1,620,350,R,1,<rshift>,1,1,402303,417
Control_TS_13_A,3,test,R,27,4,820,550,R,1,<rshift>,1,1,403303,387
Control_TS_13_A,3,test,R,28,3,620,550,P,0,<rshift>,1,0,404303,369
Control_TS_13_A,3,test,R,29,4,820,550,R,1,<rshift>,1,1,405303,383
Control_TS_13_A,3,test,R,30,2,820,350,R,1,<rshift>,1,1,406303,362
Control_TS_13_A,3,test,R,31,4,820,550,R,1,<rshift>,1,1,407303,322
Control_TS_13_A,3,test,R,32,4,820,550,R,1,<rshift>,1,1,408303,368
Control_TS_13_A,3,test,R,33,3,620,550,R,1,<rshift>,1,1,409303,467
Control_TS_13_A,3,test,R,34,1,620,350,R,1,<rshift>,1,1,410303,371
Control_TS_13_A,3,test,R,35,4,820,550,R,1,<rshift>,1,1,411303,364
Control_TS_13_A,3,test,R,36,1,620,350,R,1,<rshift>,1,1,412303,377
Control_TS_13_A,3,test,R,37,1,620,350,R,1,<rshift>,1,1,413303,370
Control_TS_13_A,3,test,R,38,2,820,350,R,1,<rshift>,1,1,414303,380
Control_TS_13_A,3,test,R,39,3,620,550,P,0,NONE,0,1,415303,950
Control_TS_13_A,3,test,R,40,1,620,350,R,1,<rshift>,1,1,416303,464
Control_TS_13_A,3,test,R,41,1,620,350,R,1,<rshift>,1,1,417303,515
Control_TS_13_A,3,test,R,42,2,820,350,R,1,<rshift>,1,1,418303,309
Control_TS_13_A,3,test,R,43,1,620,350,R,1,<rshift>,1,1,419303,348
Control_TS_13_A,3,test,R,44,4,820,550,R,1,<rshift>,1,1,420303,473
Control_TS_13_A,3,test,R,45,3,620,550,R,1,<rshift>,1,1,421303,355
Control_TS_13_A,3,test,R,46,4,820,550,R,1,<rshift>,1,1,422303,325
Control_TS_13_A,3,test,R,47,1,620,350,R,1,<rshift>,1,1,423303,363
Control_TS_13_A,3,test,R,48,4,820,550,P,0,<rshift>,1,0,424303,337
Control_TS_13_A,3,test,R,49,2,820,350,R,1,<rshift>,1,1,425303,323
Control_TS_13_A,3,test,R,50,3,620,550,R,1,<rshift>,1,1,426303,364
Control_TS_13_A,3,test,R,51,2,820,350,R,1,<rshift>,1,1,427303,335
Control_TS_13_A,3,test,R,52,2,820,350,R,1,<rshift>,1,1,428303,441
Control_TS_13_A,3,test,R,53,3,620,550,R,1,<rshift>,1,1,429303,406
Control_TS_13_A,3,test,R,54,4,820,550,R,1,<rshift>,1,1,430303,361
Control_TS_13_A,3,test,R,55,4,820,550,R,1,<rshift>,1,1,431303,320
Control_TS_13_A,3,test,R,56,4,820,550,R,1,<rshift>,1,1,432303,343
Control_TS_13_A,3,test,R,57,4,820,550,R,1,<rshift>,1,1,433303,394
Control_TS_13_A,3,test,R,58,3,620,550,R,1,<rshift>,1,1,434303,438
Control_TS_13_A,3,test,R,59,3,620,550,R,1,<rshift>,1,1,435303,515
Control_TS_13_A,3,test,R,60,1,620,350,R,1,<rshift>,1,1,436303,430
Control_TS_13_A,3,test,R,61,1,620,350,R,1,<rshift>,1,1,437303,404
Control_TS_13_A,3,test,R,62,1,620,350,R,1,<rshift>,1,1,438303,351
Control_TS_13_A,3,test,R,63,2,820,350,R,1,<rshift>,1,1,439303,426
Control_TS_13_A,3,test,R,64,4,820,550,P,0,<rshift>,1,0,440303,360
Control_TS_13_A,3,test,R,65,4,820,550,P,0,NONE,0,1,441303,950
Control_TS_13_A,3,test,R,66,1,620,350,P,0,<rshift>,1,0,442303,357
Control_TS_13_A,3,test,R,67,4,820,550,R,1,<rshift>,1,1,443303,449
Control_TS_13_A,3,test,R,68,4,820,550,R,1,<rshift>,1,1,444303,437
Control_TS_13_A,3,test,R,69,4,820,550,R,1,<rshift>,1,1,445303,383
Control_TS_13_A,3,test,R,70,1,620,350,R,1,<rshift>,1,1,446303,553
Control_TS_13_A,3,test,R,71,2,820,350,R,1,<rshift>,1,1,447303,367
Control_TS_13_A,3,test,R,72,1,620,350,R,1,<rshift>,1,1,448303,362
Control_TS_13_A,3,test,R,73,2,820,350,R,1,<rshift>,1,1,449303,324
Control_TS_13_A,3,test,R,74,4,820,550,R,1,<rshift>,1,1,450303,340
Control_TS_13_A,3,test,R,75,2,820,350,R,1,<rshift>,1,1,451303,349
Control_TS_13_A,3,test,R,76,3,620,550,R,1,<rshift>,1,1,452303,343
Control_TS_13_A,3,test,R,77,4,820,550,R,1,<rshift>,1,1,453303,385
Control_TS_13_A,3,test,R,78,4,820,550,R,1,<rshift>,1,1,454303,372
Control_TS_13_A,3,test,R,79,3,620,550,R,1,<rshift>,1,1,455302,455
Control_TS_13_A,3,test,R,80,3,620,550,R,1,<rshift>,1,1,456303,413
Control_TS_13_A,3,test,R,81,3,620,550,R,1,<rshift>,1,1,457303,424
Control_TS_13_A,3,test,R,82,2,820,350,R,1,<rshift>,1,1,458303,393
Control_TS_13_A,3,test,R,83,1,620,350,P,0,<rshift>,1,0,459303,358
Control_TS_13_A,3,test,R,84,2,820,350,P,0,NONE,0,1,460303,950
Control_TS_13_A,3,test,R,85,3,620,550,R,1,<rshift>,1,1,461303,428
Control_TS_13_A,3,test,R,86,2,820,350,P,0,NONE,0,1,462303,950
Control_TS_13_A,3,test,R,87,4,820,550,P,0,NONE,0,1,463303,950
Control_TS_13_A,3,test,R,88,3,620,550,R,1,<rshift>,1,1,464303,397
Control_TS_13_A,3,test,R,89,1,620,350,R,1,<rshift>,1,1,465303,438
Control_TS_13_A,3,test,R,90,2,820,350,R,1,<rshift>,1,1,466303,365
Control_TS_13_A,3,test,R,91,2,820,350,R,1,<rshift>,1,1,467303,375
Control_TS_13_A,3,test,R,92,4,820,550,R,1,<rshift>,1,1,468303,347
Control_TS_13_A,3,test,R,93,2,820,350,R,1,<rshift>,1,1,469303,356
Control_TS_13_A,3,test,R,94,4,820,550,R,1,<rshift>,1,1,470303,363
Control_TS_13_A,3,test,R,95,4,820,550,R,1,<rshift>,1,1,471303,359
Control_TS_13_A,3,test,R,96,4,820,550,R,1,<rshift>,1,1,472303,446
Control_TS_13_A,3,test,R,97,3,620,550,R,1,<rshift>,1,1,473303,366
Control_TS_13_A,3,test,R,98,4,820,550,R,1,<rshift>,1,1,474303,345
Control_TS_13_A,3,test,R,99,4,820,550,R,1,<rshift>,1,1,475303,398
Control_TS_13_A,3,test,R,100,4,820,550,R,1,<rshift>,1,1,476303,388
Control_TS_13_A,3,test,R,101,3,620,550,R,1,<rshift>,1,1,477303,339
Control_TS_13_A,3,test,R,102,1,620,350,R,1,<rshift>,1,1,478303,410
Control_TS_13_A,3,test,R,103,2,820,350,R,1,<rshift>,1,1,479303,459
Control_TS_13_A,3,test,R,104,4,820,550,R,1,<rshift>,1,1,480303,344
Control_TS_13_A,3,test,R,105,2,820,350,R,1,<rshift>,1,1,481303,389
Control_TS_13_A,3,test,R,106,4,820,550,P,0,NONE,0,1,482303,950
Control_TS_13_A,3,test,R,107,3,620,550,R,1,<rshift>,1,1,483303,438
Control_TS_13_A,3,test,R,108,4,820,550,P,0,<rshift>,1,0,484303,379
Control_TS_13_A,3,test,R,109,2,820,350,P,0,NONE,0,1,485303,950
Control_TS_13_A,3,test,R,110,4,820,550,P,0,NONE,0,1,486303,950
Control_TS_13_A,3,test,R,111,1,620,350,R,1,<rshift>,1,1,487303,379
Control_TS_13_A,3,test,R,112,2,820,350,R,1,<rshift>,1,1,488303,324
Control_TS_13_A,3,test,R,113,3,620,550,R,1,<rshift>,1,1,489303,303
Control_TS_13_A,3,test,R,114,1,620,350,R,1,<rshift>,1,1,490303,438
Control_TS_13_A,3,test,R,115,1,620,350,R,1,<rshift>,1,1,491303,418
Control_TS_13_A,3,test,R,116,4,820,550,R,1,<rshift>,1,1,492303,358
Control_TS_13_A,3,test,R,117,4,820,550,P,0,NONE,0,1,493303,950
Control_TS_13_A,3,test,R,118,3,620,550,R,1,<rshift>,1,1,494303,419
Control_TS_13_A,3,test,R,119,1,620,350,R,1,<rshift>,1,1,495303,378
Control_TS_13_A,3,test,R,120,4,820,550,R,1,<rshift>,1,1,496303,349
Control_TS_13_A,3,test,R,121,3,620,550,R,1,<rshift>,1,1,497303,369
Control_TS_13_A,3,test,R,122,2,820,350,R,1,<rshift>,1,1,498303,424
Control_TS_13_A,3,test,R,123,1,620,350,P,0,NONE,0,1,499303,950
Control_TS_13_A,3,test,R,124,4,820,550,R,1,<rshift>,1,1,500303,350
Control_TS_13_A,3,test,R,125,1,620,350,R,1,<rshift>,1,1,501303,394
Control_TS_13_A,3,test,R,126,4,820,550,R,1,<rshift>,1,1,502303,485
Control_TS_13_A,3,test,R,127,1,620,350,R,1,<rshift>,1,1,503303,396
Control_TS_13_A,3,test,R,128,1,620,350,P,0,NONE,0,1,504303,950
Control_TS_13_A,3,test,R,129,1,620,350,R,1,<rshift>,1,1,505303,418
Control_TS_13_A,3,test,R,130,3,620,550,R,1,<rshift>,1,1,506303,399
Control_TS_13_A,3,test,R,131,3,620,550,P,0,NONE,0,1,507303,950
Control_TS_13_A,3,test,R,132,3,620,550,R,1,<rshift>,1,1,508303,379
Control_TS_13_A,3,test,R,133,1,620,350,R,1,<rshift>,1,1,509303,384
Control_TS_13_A,3,test,R,134,3,620,550,P,0,NONE,0,1,510303,950
Control_TS_13_A,3,test,R,135,1,620,350,P,0,NONE,0,1,511303,950
Control_TS_13_A,3,test,R,136,1,620,350,R,1,<rshift>,1,1,512303,402
Control_TS_13_A,3,test,R,137,2,820,350,R,1,<rshift>,1,1,513303,326
Control_TS_13_A,3,test,R,138,4,820,550,R,1,<rshift>,1,1,514303,333
Control_TS_13_A,3,test,R,139,1,620,350,R,1,<rshift>,1,1,515303,489
Control_TS_13_A,3,test,R,140,2,820,350,R,1,<rshift>,1,1,516302,339
Control_TS_13_A,3,test,R,141,4,820,550,R,1,<rshift>,1,1,517303,380
Control_TS_13_A,3,test,R,142,4,820,550,P,0,NONE,0,1,518303,950
Control_TS_13_A,3,test,R,143,3,620,550,R,1,<rshift>,1,1,519303,391
Control_TS_13_A,3,test,R,144,3,620,550,P,0,<rshift>,1,0,520303,649
Control_TS_13_A,3,test,R,145,3,620,550,R,1,<rshift>,1,1,521303,440
Control_TS_13_A,3,test,R,146,1,620,350,P,0,<rshift>,1,0,522303,359
Control_TS_13_A,3,test,R,147,2,820,350,R,1,<rshift>,1,1,523303,481
Control_TS_13_A,3,test,R,148,1,620,350,R,1,<rshift>,1,1,524303,370
Control_TS_13_A,3,test,R,149,3,620,550,R,1,<rshift>,1,1,525303,364
Control_TS_13_A,3,test,R,150,4,820,550,R,1,<rshift>,1,1,526303,363
Control_TS_13_A,3,test,R,151,3,620,550,R,1,<rshift>,1,1,527303,550
Control_TS_13_A,3,test,R,152,4,820,550,P,0,<rshift>,1,0,528303,313
Control_TS_13_A,3,test,R,153,1,620,350,R,1,<rshift>,1,1,529303,349
Control_TS_13_A,3,test,R,154,4,820,550,R,1,<rshift>,1,1,530303,364
Control_TS_13_A,3,test,R,155,1,620,350,R,1,<rshift>,1,1,531303,371
Control_TS_13_A,3,test,R,156,2,820,350,R,1,<rshift>,1,1,532303,319
Control_TS_13_A,3,test,R,157,4,820,550,P,0,NONE,0,1,533303,950
Control_TS_13_A,3,test,R,158,2,820,350,R,1,<rshift>,1,1,534303,331
Control_TS_13_A,3,test,R,159,3,620,550,R,1,<rshift>,1,1,535303,378
Control_TS_13_A,3,test,R,160,1,620,350,R,1,<rshift>,1,1,536303,353
Control_TS_13_A,3,test,R,161,1,620,350,R,1,<rshift>,1,1,537303,380
Control_TS_13_A,3,test,R,162,1,620,350,R,1,<rshift>,1,1,538303,465
Control_TS_13_A,3,test,R,163,4,820,550,R,1,<rshift>,1,1,539303,487
Control_TS_13_A,3,test,R,164,4,820,550,R,1,<rshift>,1,1,540303,515
Control_TS_13_A,3,test,R,165,3,620,550,R,1,<rshift>,1,1,541303,369
Control_TS_13_A,3,test,R,166,1,620,350,R,1,<rshift>,1,1,542303,378
Control_TS_13_A,3,test,R,167,4,820,550,R,1,<rshift>,1,1,543303,320
Control_TS_13_A,3,test,R,168,2,820,350,R,1,<rshift>,1,1,544303,332
Control_TS_13_A,3,test,R,169,2,820,350,P,0,NONE,0,1,545303,950
Control_TS_13_A,3,test,R,170,3,620,550,P,0,NONE,0,1,546303,950
Control_TS_13_A,3,test,R,171,3,620,550,P,0,NONE,0,1,547303,950
Control_TS_13_A,3,test,R,172,4,820,550,R,1,<rshift>,1,1,548303,364
Control_TS_13_A,3,test,R,173,1,620,350,P,0,<rshift>,1,0,549303,331
Control_TS_13_A,3,test,R,174,2,820,350,R,1,<rshift>,1,1,550303,498
Control_TS_13_A,3,test,R,175,1,620,350,R,1,<rshift>,1,1,551303,446
Control_TS_13_A,3,test,R,176,3,620,550,P,0,NONE,0,1,552303,950
Control_TS_13_A,3,test,R,177,1,620,350,R,1,<rshift>,1,1,553303,434
Control_TS_13_A,3,test,R,178,3,620,550,R,1,<rshift>,1,1,554303,429
Control_TS_13_A,3,test,R,179,3,620,550,P,0,NONE,0,1,555303,950
Control_TS_13_A,3,test,R,180,1,620,350,P,0,<rshift>,1,0,556303,354
Control_TS_13_A,3,test,R,181,4,820,550,R,1,<rshift>,1,1,557303,412
Control_TS_13_A,3,test,R,182,4,820,550,R,1,<rshift>,1,1,558303,396
Control_TS_13_A,3,test,R,183,1,620,350,R,1,<rshift>,1,1,559303,431
Control_TS_13_A,3,test,R,184,1,620,350,R,1,<rshift>,1,1,560303,422
Control_TS_13_A,3,test,R,185,1,620,350,R,1,<rshift>,1,1,561303,448
Control_TS_13_A,3,test,R,186,2,820,350,R,1,<rshift>,1,1,562303,499
Control_TS_13_A,3,test,R,187,2,820,350,R,1,<rshift>,1,1,563303,359
Control_TS_13_A,3,test,R,188,4,820,550,P,0,NONE,0,1,564303,950
Control_TS_13_A,3,test,R,189,2,820,350,R,1,<rshift>,1,1,565303,375
Control_TS_13_A,3,test,R,190,2,820,350,R,1,<rshift>,1,1,566302,556
Control_TS_13_A,3,test,R,191,2,820,350,R,1,<rshift>,1,1,567303,376
Control_TS_13_A,3,test,R,192,2,820,350,R,1,<rshift>,1,1,568303,303
Control_TS_13_A,3,test,R,193,4,820,550,R,1,<rshift>,1,1,569303,340
Control_TS_13_A,3,test,R,194,2,820,350,R,1,<rshift>,1,1,570303,324
Control_TS_13_A,3,test,R,195,1,620,350,P,0,NONE,0,1,571303,950
Control_TS_13_A,3,test,R,196,2,820,350,R,1,<rshift>,1,1,572303,366
Control_TS_13_A,3,test,R,197,2,820,350,P,0,NONE,0,1,573303,950
Control_TS_13_A,3,test,R,198,3,620,550,R,1,<rshift>,1,1,574303,515
Control_TS_13_A,3,test,R,199,1,620,350,R,1,<rshift>,1,1,575303,374
Control_TS_13_A,3,test,R,200,4,820,550,R,1,<rshift>,1,1,576303,342
Control_TS_13_A,3,test,R,201,1,620,350,R,1,<rshift>,1,1,577303,339
Control_TS_13_A,3,test,R,202,3,620,550,R,1,<rshift>,1,1,578303,348
Control_TS_13_A,3,test,R,203,2,820,350,R,1,<rshift>,1,1,579303,409
Control_TS_13_A,3,test,R,204,3,620,550,R,1,<rshift>,1,1,580303,372
Control_TS_13_A,3,test,R,205,1,620,350,R,1,<rshift>,1,1,581303,368
Control_TS_13_A,3,test,R,206,2,820,350,R,1,<rshift>,1,1,582303,390
Control_TS_13_A,3,test,R,207,2,820,350,R,1,<rshift>,1,1,583303,396
Control_TS_13_A,3,test,R,208,4,820,550,P,0,<rshift>,1,0,584303,319
Control_TS_13_A,3,test,R,209,3,620,550,R,1,<rshift>,1,1,585303,395
Control_TS_13_A,3,test,R,210,3,620,550,R,1,<rshift>,1,1,586303,391
Control_TS_13_A,3,test,R,211,3,620,550,R,1,<rshift>,1,1,587303,391
Control_TS_13_A,3,test,R,212,1,620,350,P,0,<rshift>,1,0,588303,335
Control_TS_13_A,3,test,R,213,2,820,350,P,0,<rshift>,1,0,589303,375
Control_TS_13_A,3,test,R,214,4,820,550,R,1,<rshift>,1,1,590303,410
Control_TS_13_A,3,test,R,215,2,820,350,R,1,<rshift>,1,1,591303,369
Control_TS_13_A,3,test,R,216,4,820,550,P,0,<rshift>,1,0,592303,338
Control_TS_13_A,3,test,R,217,4,820,550,R,1,<rshift>,1,1,593303,625
Control_TS_13_A,3,test,R,218,3,620,550,R,1,<rshift>,1,1,594303,326
Control_TS_13_A,3,test,R,219,3,620,550,R,1,<rshift>,1,1,595303,341
Control_TS_13_A,3,test,R,220,1,620,350,R,1,<rshift>,1,1,596303,329
Control_TS_13_A,3,test,R,221,4,820,550,R,1,<rshift>,1,1,597303,324
Control_TS_13_A,3,test,R,222,4,820,550,R,1,<rshift>,1,1,598303,394
Control_TS_13_A,3,test,R,223,3,620,550,P,0,NONE,0,1,599303,950
Control_TS_13_A,3,test,R,224,4,820,550,R,1,<rshift>,1,1,600303,457
Control_TS_13_A,3,test,R,225,2,820,350,P,0,<rshift>,1,0,601303,304
Control_TS_13_A,3,test,R,226,4,820,550,R,1,<rshift>,1,1,602303,322
Control_TS_13_A,3,test,R,227,4,820,550,R,1,<rshift>,1,1,603303,415
Control_TS_13_A,3,test,R,228,2,820,350,R,1,<rshift>,1,1,604303,430
Control_TS_13_A,3,test,R,229,1,620,350,P,0,NONE,0,1,605303,950
Control_TS_13_A,3,test,R,230,4,820,550,R,1,<rshift>,1,1,606303,422
Control_TS_13_A,3,test,R,231,1,620,350,P,0,NONE,0,1,607303,950
Control_TS_13_A,3,test,R,232,3,620,550,R,1,<rshift>,1,1,608303,331
Control_TS_13_A,3,test,R,233,1,620,350,R,1,<rshift>,1,1,609303,358
Control_TS_13_A,3,test,R,234,1,620,350,R,1,<rshift>,1,1,610303,394
Control_TS_13_A,3,test,R,235,2,820,350,R,1,<rshift>,1,1,611303,299
Control_TS_13_A,3,test,R,236,4,820,550,R,1,<rshift>,1,1,612303,272
Control_TS_13_A,3,test,R,237,3,620,550,R,1,<rshift>,1,1,613303,268
Control_TS_13_A,3,test,R,238,3,620,550,R,1,<rshift>,1,1,614302,328
Control_TS_13_A,3,test,R,239,3,620,550,R,1,<rshift>,1,1,615303,310
Control_TS_13_A,3,test,R,240,3,620,550,R,1,<rshift>,1,1,616303,297
Control_TS_13_A,3,test,R,241,1,620,350,R,1,<rshift>,1,1,617303,314
Control_TS_13_A,3,test,R,242,3,620,550,R,1,<rshift>,1,1,618303,256
Control_TS_13_A,3,test,R,243,2,820,350,R,1,<rshift>,1,1,619303,287
Control_TS_13_A,3,test,R,244,3,620,550,R,1,<rshift>,1,1,620303,257
Control_TS_13_A,3,test,R,245,4,820,550,R,1,<rshift>,1,1,621303,259
Control_TS_13_A,3,test,R,246,2,820,350,R,1,<rshift>,1,1,622303,306
Control_TS_13_A,3,test,R,247,1,620,350,P,0,NONE,0,1,623303,950
Control_TS_13_A,3,test,R,248,1,620,350,R,1,<rshift>,1,1,624303,349
Control_TS_13_A,3,test,R,249,3,620,550,R,1,NONE,0,0,625303,950
Control_TS_13_A,3,test,R,250,2,820,350,R,1,<rshift>,1,1,626303,256
Control_TS_13_A,3,test,R,251,2,820,350,R,1,<rshift>,1,1,627303,294
Control_TS_13_A,3,test,R,252,2,820,350,P,0,NONE,0,1,628303,950
Control_TS_13_A,3,test,R,253,3,620,550,P,0,<rshift>,1,0,629303,309
Control_TS_13_A,3,test,R,254,1,620,350,R,1,<rshift>,1,1,630303,340
Control_TS_13_A,3,test,R,255,4,820,550,R,1,<rshift>,1,1,631303,273
Control_TS_13_A,3,test,R,256,4,820,550,R,1,<rshift>,1,1,632303,338
Control_TS_13_A,3,test,R,257,2,820,350,R,1,<rshift>,1,1,633303,252
Control_TS_13_A,3,test,R,258,4,820,550,P,0,<rshift>,1,0,634303,272
Control_TS_13_A,3,test,R,259,1,620,350,R,1,<rshift>,1,1,635303,369
Control_TS_13_A,3,test,R,260,3,620,550,R,1,<rshift>,1,1,636303,321
Control_TS_13_A,3,test,R,261,2,820,350,R,1,<rshift>,1,1,637303,246
Control_TS_13_A,3,test,R,262,1,620,350,R,1,<rshift>,1,1,638303,290
Control_TS_13_A,3,test,R,263,4,820,550,P,0,<rshift>,1,0,639303,285
Control_TS_13_A,3,test,R,264,1,620,350,R,1,<rshift>,1,1,640303,267
Control_TS_13_A,3,test,R,265,4,820,550,R,1,<rshift>,1,1,641303,442
Control_TS_13_A,3,test,R,266,3,620,550,R,1,<rshift>,1,1,642303,300
Control_TS_13_A,3,test,R,267,2,820,350,R,1,<rshift>,1,1,643303,284
Control_TS_13_A,3,test,R,268,2,820,350,R,1,<rshift>,1,1,644303,334
Control_TS_13_A,3,test,R,269,4,820,550,P,0,NONE,0,1,645303,950
Control_TS_13_A,3,test,R,270,4,820,550,R,1,<rshift>,1,1,646303,378
Control_TS_13_A,3,test,R,271,3,620,550,R,1,<rshift>,1,1,647303,377
Control_TS_13_A,3,test,R,272,2,820,350,R,1,<rshift>,1,1,648303,278
Control_TS_13_A,3,test,R,273,3,620,550,P,0,<rshift>,1,0,649303,299
Control_TS_13_A,3,test,R,274,3,620,550,P,0,NONE,0,1,650303,950
Control_TS_13_A,3,test,R,275,2,820,350,R,1,<rshift>,1,1,651303,313
Control_TS_13_A,3,test,R,276,4,820,550,R,1,<rshift>,1,1,652303,326
Control_TS_13_A,3,test,R,277,4,820,550,P,0,NONE,0,1,653303,950
Control_TS_13_A,3,test,R,278,2,820,350,R,1,<rshift>,1,1,654303,314
Control_TS_13_A,3,test,R,279,3,620,550,R,1,<rshift>,1,1,655303,313
Control_TS_13_A,3,test,R,280,2,820,350,R,1,<rshift>,1,1,656303,321
Control_TS_13_A,3,test,R,281,1,620,350,R,1,<rshift>,1,1,657303,347
Control_TS_13_A,3,test,R,282,1,620,350,P,0,<rshift>,1,0,658303,334
Control_TS_13_A,3,test,R,283,2,820,350,R,1,<rshift>,1,1,659303,355
Control_TS_13_A,3,test,R,284,4,820,550,P,0,NONE,0,1,660303,950
Control_TS_13_A,3,test,R,285,4,820,550,R,1,<rshift>,1,1,661303,361
Control_TS_13_A,3,test,R,286,1,620,350,R,1,<rshift>,1,1,662303,364
Control_TS_13_A,3,test,R,287,4,820,550,P,0,<rshift>,1,0,663303,340
Control_TS_13_A,3,test,R,288,3,620,550,R,1,<rshift>,1,1,664303,350
Control_TS_13_A,3,test,R,289,1,620,350,R,1,<rshift>,1,1,665303,339
Control_TS_13_A,3,test,R,290,3,620,550,R,1,<rshift>,1,1,666303,284
Control_TS_13_A,3,test,R,291,2,820,350,R,1,<rshift>,1,1,667303,311
Control_TS_13_A,3,test,R,292,4,820,550,R,1,<rshift>,1,1,668303,310
Control_TS_13_A,3,test,R,293,1,620,350,R,1,<rshift>,1,1,669303,334
Control_TS_13_A,3,test,R,294,2,820,350,R,1,<rshift>,1,1,670303,305
Control_TS_13_A,3,test,R,295,4,820,550,P,0,<rshift>,1,0,671303,309
Control_TS_13_A,3,test,R,296,1,620,350,R,1,<rshift>,1,1,672303,318
Control_TS_13_A,3,test,R,297,2,820,350,R,1,<rshift>,1,1,673303,290
Control_TS_13_A,3,test,R,298,1,620,350,P,0,<rshift>,1,0,674303,292
Control_TS_13_A,3,test,R,299,3,620,550,R,1,<rshift>,1,1,675303,284
Control_TS_13_A,3,test,R,300,4,820,550,R,1,<rshift>,1,1,676303,356
