subnum,block,type,correctresponse,trial,choice,x,y,stim,present,response,responded,corr,starttime,rt
Control_TS_13_B,0,practice,P,1,1,620,350,R,0,NONE,0,1,6703,950
Control_TS_13_B,0,practice,P,2,2,820,350,P,1,<rshift>,1,1,7701,434
Control_TS_13_B,0,practice,P,3,4,820,550,R,0,NONE,0,1,8701,950
Control_TS_13_B,0,practice,P,4,1,620,350,P,1,<rshift>,1,1,9701,340
Control_TS_13_B,0,practice,P,5,4,820,550,P,1,<rshift>,1,1,10701,374
Control_TS_13_B,0,practice,P,6,1,620,350,P,1,<rshift>,1,1,11701,349
Control_TS_13_B,0,practice,P,7,2,820,350,P,1,<rshift>,1,1,12701,352
Control_TS_13_B,0,practice,P,8,3,620,550,P,1,<rshift>,1,1,13701,361
Control_TS_13_B,0,practice,P,9,1,620,350,P,1,<rshift>,1,1,14701,333
Control_TS_13_B,0,practice,P,10,4,820,550,P,1,<rshift>,1,1,15701,311
Control_TS_13_B,1,test,P,1,1,620,350,P,1,<rshift>,1,1,22323,485
Control_TS_13_B,1,test,P,2,1,620,350,P,1,<rshift>,1,1,23323,318
Control_TS_13_B,1,test,P,3,2,820,350,P,1,<rshift>,1,1,24323,326
Control_TS_13_B,1,test,P,4,4,820,550,P,1,<rshift>,1,1,25323,339
Control_TS_13_B,1,test,P,5,1,620,350,R,0,NONE,0,1,26323,950
Control_TS_13_B,1,test,P,6,1,620,350,P,1,<rshift>,1,1,27323,361
Control_TS_13_B,1,test,P,7,4,820,550,P,1,<rshift>,1,1,28323,356
Control_TS_13_B,1,test,P,8,4,820,550,P,1,<rshift>,1,1,29323,330
Control_TS_13_B,1,test,P,9,1,620,350,P,1,<rshift>,1,1,30323,303
Control_TS_13_B,1,test,P,10,1,620,350,P,1,<rshift>,1,1,31323,296
Control_TS_13_B,1,test,P,11,4,820,550,P,1,<rshift>,1,1,32323,356
Control_TS_13_B,1,test,P,12,1,620,350,P,1,<rshift>,1,1,33323,316
Control_TS_13_B,1,test,P,13,3,620,550,P,1,<rshift>,1,1,34323,331
Control_TS_13_B,1,test,P,14,2,820,350,P,1,<rshift>,1,1,35323,358
Control_TS_13_B,1,test,P,15,3,620,550,P,1,<rshift>,1,1,36323,386
Control_TS_13_B,1,test,P,16,3,620,550,P,1,<rshift>,1,1,37324,325
Control_TS_13_B,1,test,P,17,1,620,350,P,1,<rshift>,1,1,38323,363
Control_TS_13_B,1,test,P,18,1,620,350,P,1,<rshift>,1,1,39323,374
Control_TS_13_B,1,test,P,19,1,620,350,P,1,<rshift>,1,1,40323,294
Control_TS_13_B,1,test,P,20,4,820,550,P,1,<rshift>,1,1,41323,303
Control_TS_13_B,1,test,P,21,3,620,550,P,1,<rshift>,1,1,42323,316
Control_TS_13_B,1,test,P,22,1,620,350,P,1,<rshift>,1,1,43323,293
Control_TS_13_B,1,test,P,23,3,620,550,P,1,<rshift>,1,1,44323,270
Control_TS_13_B,1,test,P,24,4,820,550,P,1,<rshift>,1,1,45323,262
Control_TS_13_B,1,test,P,25,4,820,550,P,1,<rshift>,1,1,46323,273
Control_TS_13_B,1,test,P,26,2,820,350,P,1,<rshift>,1,1,47323,315
Control_TS_13_B,1,test,P,27,3,620,550,R,0,<rshift>,1,0,48323,297
Control_TS_13_B,1,test,P,28,1,620,350,P,1,<rshift>,1,1,49323,292
Control_TS_13_B,1,test,P,29,1,620,350,R,0,NONE,0,1,50323,950
Control_TS_13_B,1,test,P,30,2,820,350,P,1,<rshift>,1,1,51323,299
Control_TS_13_B,1,test,P,31,4,820,550,R,0,<rshift>,1,0,52323,272
Control_TS_13_B,1,test,P,32,3,620,550,P,1,<rshift>,1,1,53323,414
Control_TS_13_B,1,test,P,33,3,620,550,P,1,<rshift>,1,1,54323,335
Control_TS_13_B,1,test,P,34,4,820,550,P,1,<rshift>,1,1,55323,352
Control_TS_13_B,1,test,P,35,4,820,550,P,1,<rshift>,1,1,56323,289
Control_TS_13_B,1,test,P,36,3,620,550,P,1,<rshift>,1,1,57323,368
Control_TS_13_B,1,test,P,37,4,820,550,P,1,<rshift>,1,1,58323,355
Control_TS_13_B,1,test,P,38,1,620,350,P,1,<rshift>,1,1,59323,465
Control_TS_13_B,1,test,P,39,4,820,550,P,1,<rshift>,1,1,60323,320
Control_TS_13_B,1,test,P,40,3,620,550,P,1,<rshift>,1,1,61323,497
Control_TS_13_B,1,test,P,41,1,620,350,P,1,<rshift>,1,1,62323,326
Control_TS_13_B,1,test,P,42,2,820,350,P,1,<rshift>,1,1,63323,473
Control_TS_13_B,1,test,P,43,3,620,550,P,1,<rshift>,1,1,64323,418
Control_TS_13_B,1,test,P,44,3,620,550,P,1,<rshift>,1,1,65323,302
Control_TS_13_B,1,test,P,45,3,620,550,P,1,<rshift>,1,1,66323,382
Control_TS_13_B,1,test,P,46,2,820,350,P,1,<rshift>,1,1,67323,314
Control_TS_13_B,1,test,P,47,4,820,550,R,0,NONE,0,1,68323,950
Control_TS_13_B,1,test,P,48,3,620,550,R,0,<rshift>,1,0,69323,350
Control_TS_13_B,1,test,P,49,3,620,550,P,1,<rshift>,1,1,70323,323
Control_TS_13_B,1,test,P,50,3,620,550,P,1,<rshift>,1,1,71323,322
Control_TS_13_B,1,test,P,51,1,620,350,P,1,<rshift>,1,1,72323,334
Control_TS_13_B,1,test,P,52,2,820,350,R,0,<rshift>,1,0,73323,365
Control_TS_13_B,1,test,P,53,2,820,350,R,0,NONE,0,1,74323,950
Control_TS_13_B,1,test,P,54,4,820,550,P,1,<rshift>,1,1,75323,302
Control_TS_13_B,1,test,P,55,2,820,350,P,1,<rshift>,1,1,76323,322
Control_TS_13_B,1,test,P,56,4,820,550,P,1,<rshift>,1,1,77323,302
Control_TS_13_B,1,test,P,57,3,620,550,P,1,<rshift>,1,1,78323,337
Control_TS_13_B,1,test,P,58,1,620,350,P,1,<rshift>,1,1,79323,352
Control_TS_13_B,1,test,P,59,4,820,550,P,1,<rshift>,1,1,80323,352
Control_TS_13_B,1,test,P,60,3,620,550,P,1,<rshift>,1,1,81323,345
Control_TS_13_B,1,test,P,61,2,820,350,P,1,<rshift>,1,1,82323,268
Control_TS_13_B,1,test,P,62,4,820,550,P,1,<rshift>,1,1,83323,243
Control_TS_13_B,1,test,P,63,4,820,550,R,0,<rshift>,1,0,84323,306
Control_TS_13_B,1,test,P,64,1,620,350,P,1,<rshift>,1,1,85323,372
Control_TS_13_B,1,test,P,65,4,820,550,R,0,<rshift>,1,0,86323,285
Control_TS_13_B,1,test,P,66,3,620,550,R,0,<rshift>,1,0,87323,317
Control_TS_13_B,1,test,P,67,3,620,550,P,1,<rshift>,1,1,88323,363
Control_TS_13_B,1,test,P,68,2,820,350,P,1,<rshift>,1,1,89323,516
Control_TS_13_B,1,test,P,69,1,620,350,P,1,<rshift>,1,1,90323,373
Control_TS_13_B,1,test,P,70,4,820,550,P,1,<rshift>,1,1,91323,432
Control_TS_13_B,1,test,P,71,3,620,550,P,1,<rshift>,1,1,92323,346
Control_TS_13_B,1,test,P,72,4,820,550,P,1,<rshift>,1,1,93323,301
Control_TS_13_B,1,test,P,73,2,820,350,P,1,<rshift>,1,1,94323,305
Control_TS_13_B,1,test,P,74,3,620,550,R,0,<rshift>,1,0,95323,305
Control_TS_13_B,1,test,P,75,3,620,550,P,1,<rshift>,1,1,96323,367
Control_TS_13_B,1,test,P,76,1,620,350,P,1,<rshift>,1,1,97323,399
Control_TS_13_B,1,test,P,77,4,820,550,P,1,<rshift>,1,1,98323,313
Control_TS_13_B,1,test,P,78,2,820,350,R,0,NONE,0,1,99323,950
Control_TS_13_B,1,test,P,79,2,820,350,R,0,NONE,0,1,100323,950
Control_TS_13_B,1,test,P,80,2,820,350,P,1,<rshift>,1,1,101323,346
Control_TS_13_B,1,test,P,81,2,820,350,R,0,NONE,0,1,102323,950
Control_TS_13_B,1,test,P,82,4,820,550,P,1,<rshift>,1,1,103323,300
Control_TS_13_B,1,test,P,83,2,820,350,P,1,<rshift>,1,1,104323,384
Control_TS_13_B,1,test,P,84,1,620,350,R,0,NONE,0,1,105323,950
Control_TS_13_B,1,test,P,85,4,820,550,P,1,<rshift>,1,1,106323,359
Control_TS_13_B,1,test,P,86,4,820,550,P,1,<rshift>,1,1,107323,312
Control_TS_13_B,1,test,P,87,3,620,550,P,1,<rshift>,1,1,108323,355
Control_TS_13_B,1,test,P,88,1,620,350,P,1,<rshift>,1,1,109323,515
Control_TS_13_B,1,test,P,89,2,820,350,P,1,<rshift>,1,1,110323,330
Control_TS_13_B,1,test,P,90,1,620,350,P,1,<rshift>,1,1,111323,331
Control_TS_13_B,1,test,P,91,2,820,350,P,1,<rshift>,1,1,112323,320
Control_TS_13_B,1,test,P,92,4,820,550,P,1,<rshift>,1,1,113323,315
Control_TS_13_B,1,test,P,93,1,620,350,R,0,<rshift>,1,0,114323,313
Control_TS_13_B,1,test,P,94,2,820,350,P,1,<rshift>,1,1,115323,369
Control_TS_13_B,1,test,P,95,4,820,550,P,1,<rshift>,1,1,116323,296
Control_TS_13_B,1,test,P,96,4,820,550,P,1,<rshift>,1,1,117323,314
Control_TS_13_B,1,test,P,97,3,620,550,P,1,<rshift>,1,1,118323,393
Control_TS_13_B,1,test,P,98,2,820,350,P,1,<rshift>,1,1,119323,310
Control_TS_13_B,1,test,P,99,4,820,550,P,1,<rshift>,1,1,120323,298
Control_TS_13_B,1,test,P,100,3,620,550,P,1,<rshift>,1,1,121323,355
Control_TS_13_B,1,test,P,101,2,820,350,P,1,<rshift>,1,1,122323,371
Control_TS_13_B,1,test,P,102,3,620,550,P,1,<rshift>,1,1,123323,344
Control_TS_13_B,1,test,P,103,1,620,350,R,0,<rshift>,1,0,124323,337
Control_TS_13_B,1,test,P,104,3,620,550,P,1,<rshift>,1,1,125323,349
Control_TS_13_B,1,test,P,105,4,820,550,R,0,NONE,0,1,126323,950
Control_TS_13_B,1,test,P,106,4,820,550,P,1,<rshift>,1,1,127323,357
Control_TS_13_B,1,test,P,107,2,820,350,R,0,NONE,0,1,128323,950
Control_TS_13_B,1,test,P,108,2,820,350,R,0,NONE,0,1,129323,950
Control_TS_13_B,1,test,P,109,3,620,550,P,1,<rshift>,1,1,130323,367
Control_TS_13_B,1,test,P,110,4,820,550,R,0,NONE,0,1,131323,950
Control_TS_13_B,1,test,P,111,3,620,550,R,0,<rshift>,1,0,132323,359
Control_TS_13_B,1,test,P,112,3,620,550,P,1,<rshift>,1,1,133323,391
Control_TS_13_B,1,test,P,113,4,820,550,P,1,<rshift>,1,1,134323,332
Control_TS_13_B,1,test,P,114,2,820,350,P,1,<rshift>,1,1,135323,377
Control_TS_13_B,1,test,P,115,1,620,350,P,1,<rshift>,1,1,136323,365
Control_TS_13_B,1,test,P,116,2,820,350,P,1,<rshift>,1,1,137323,465
Control_TS_13_B,1,test,P,117,3,620,550,P,1,<rshift>,1,1,138323,346
Control_TS_13_B,1,test,P,118,2,820,350,P,1,<rshift>,1,1,139323,329
Control_TS_13_B,1,test,P,119,3,620,550,P,1,<rshift>,1,1,140323,336
Control_TS_13_B,1,test,P,120,2,820,350,P,1,<rshift>,1,1,141323,312
Control_TS_13_B,1,test,P,121,2,820,350,P,1,<rshift>,1,1,142323,337
Control_TS_13_B,1,test,P,122,4,820,550,P,1,<rshift>,1,1,143323,408
Control_TS_13_B,1,test,P,123,1,620,350,R,0,NONE,0,1,144323,950
Control_TS_13_B,1,test,P,124,3,620,550,P,1,<rshift>,1,1,145323,377
Control_TS_13_B,1,test,P,125,4,820,550,P,1,<rshift>,1,1,146323,367
Control_TS_13_B,1,test,P,126,4,820,550,R,0,<rshift>,1,0,147323,348
Control_TS_13_B,1,test,P,127,2,820,350,P,1,<rshift>,1,1,148323,365
Control_TS_13_B,1,test,P,128,4,820,550,P,1,<rshift>,1,1,149323,366
Control_TS_13_B,1,test,P,129,1,620,350,R,0,NONE,0,1,150323,950
Control_TS_13_B,1,test,P,130,2,820,350,P,1,<rshift>,1,1,151323,367
Control_TS_13_B,1,test,P,131,3,620,550,P,1,<rshift>,1,1,152323,442
Control_TS_13_B,1,test,P,132,4,820,550,P,1,<rshift>,1,1,153323,407
Control_TS_13_B,1,test,P,133,3,620,550,P,1,<rshift>,1,1,154323,348
Control_TS_13_B,1,test,P,134,2,820,350,P,1,<rshift>,1,1,155323,556
Control_TS_13_B,1,test,P,135,3,620,550,R,0,<rshift>,1,0,156323,356
Control_TS_13_B,1,test,P,136,4,820,550,P,1,<rshift>,1,1,157323,358
Control_TS_13_B,1,test,P,137,3,620,550,P,1,<rshift>,1,1,158323,361
Control_TS_13_B,1,test,P,138,2,820,350,P,1,<rshift>,1,1,159323,373
Control_TS_13_B,1,test,P,139,4,820,550,P,1,<rshift>,1,1,160323,360
Control_TS_13_B,1,test,P,140,3,620,550,P,1,<rshift>,1,1,161323,315
Control_TS_13_B,1,test,P,141,1,620,350,P,1,<rshift>,1,1,162323,374
Control_TS_13_B,1,test,P,142,3,620,550,R,0,NONE,0,1,163323,950
Control_TS_13_B,1,test,P,143,4,820,550,P,1,<rshift>,1,1,164323,388
Control_TS_13_B,1,test,P,144,3,620,550,P,1,<rshift>,1,1,165323,385
Control_TS_13_B,1,test,P,145,2,820,350,R,0,NONE,0,1,166323,950
Control_TS_13_B,1,test,P,146,1,620,350,P,1,<rshift>,1,1,167323,515
Control_TS_13_B,1,test,P,147,3,620,550,P,1,<rshift>,1,1,168323,425
Control_TS_13_B,1,test,P,148,2,820,350,P,1,<rshift>,1,1,169323,366
Control_TS_13_B,1,test,P,149,1,620,350,P,1,<rshift>,1,1,170323,540
Control_TS_13_B,1,test,P,150,4,820,550,P,1,<rshift>,1,1,171323,331
Control_TS_13_B,1,test,P,151,1,620,350,P,1,<rshift>,1,1,172323,344
Control_TS_13_B,1,test,P,152,2,820,350,P,1,<rshift>,1,1,173323,316
Control_TS_13_B,1,test,P,153,1,620,350,P,1,<rshift>,1,1,174323,335
Control_TS_13_B,1,test,P,154,4,820,550,P,1,<rshift>,1,1,175323,290
Control_TS_13_B,1,test,P,155,3,620,550,P,1,<rshift>,1,1,176323,353
Control_TS_13_B,1,test,P,156,4,820,550,R,0,<rshift>,1,0,177323,320
Control_TS_13_B,1,test,P,157,3,620,550,P,1,<rshift>,1,1,178323,364
Control_TS_13_B,1,test,P,158,1,620,350,P,1,<rshift>,1,1,179323,316
Control_TS_13_B,1,test,P,159,1,620,350,P,1,<rshift>,1,1,180323,339
Control_TS_13_B,1,test,P,160,2,820,350,R,0,NONE,0,1,181323,950
Control_TS_13_B,1,test,P,161,1,620,350,R,0,<rshift>,1,0,182323,353
Control_TS_13_B,1,test,P,162,3,620,550,P,1,<rshift>,1,1,183323,371
Control_TS_13_B,1,test,P,163,1,620,350,R,0,NONE,0,1,184323,950
Control_TS_13_B,1,test,P,164,1,620,350,P,1,<rshift>,1,1,185323,374
Control_TS_13_B,1,test,P,165,2,820,350,P,1,<rshift>,1,1,186323,413
Control_TS_13_B,1,test,P,166,3,620,550,P,1,<rshift>,1,1,187323,352
Control_TS_13_B,1,test,P,167,1,620,350,P,1,<rshift>,1,1,188323,406
Control_TS_13_B,1,test,P,168,3,620,550,R,0,NONE,0,1,189323,950
Control_TS_13_B,1,test,P,169,3,620,550,P,1,<rshift>,1,1,190323,351
Control_TS_13_B,1,test,P,170,4,820,550,P,1,<rshift>,1,1,191323,410
Control_TS_13_B,1,test,P,171,3,620,550,P,1,<rshift>,1,1,192323,368
Control_TS_13_B,1,test,P,172,3,620,550,P,1,<rshift>,1,1,193323,385
Control_TS_13_B,1,test,P,173,1,620,350,P,1,<rshift>,1,1,194323,389
Control_TS_13_B,1,test,P,174,2,820,350,P,1,<rshift>,1,1,195323,371
Control_TS_13_B,1,test,P,175,1,620,350,P,1,<rshift>,1,1,196323,364
Control_TS_13_B,1,test,P,176,1,620,350,P,1,<rshift>,1,1,197323,352
Control_TS_13_B,1,test,P,177,1,620,350,R,0,<rshift>,1,0,198323,356
Control_TS_13_B,1,test,P,178,3,620,550,R,0,NONE,0,1,199323,950
Control_TS_13_B,1,test,P,179,1,620,350,P,1,<rshift>,1,1,200323,383
Control_TS_13_B,1,test,P,180,3,620,550,P,1,<rshift>,1,1,201323,514
Control_TS_13_B,1,test,P,181,1,620,350,P,1,<rshift>,1,1,202323,377
Control_TS_13_B,1,test,P,182,2,820,350,P,1,<rshift>,1,1,203323,416
Control_TS_13_B,1,test,P,183,2,820,350,P,1,<rshift>,1,1,204323,342
Control_TS_13_B,1,test,P,184,1,620,350,P,1,<rshift>,1,1,205323,342
Control_TS_13_B,1,test,P,185,1,620,350,P,1,<rshift>,1,1,206323,334
Control_TS_13_B,1,test,P,186,1,620,350,R,0,NONE,0,1,207323,950
Control_TS_13_B,1,test,P,187,1,620,350,R,0,NONE,0,1,208323,950
Control_TS_13_B,1,test,P,188,1,620,350,R,0,NONE,0,1,209323,950
Control_TS_13_B,1,test,P,189,1,620,350,P,1,<rshift>,1,1,210323,379
Control_TS_13_B,1,test,P,190,4,820,550,R,0,<rshift>,1,0,211323,338
Control_TS_13_B,1,test,P,191,3,620,550,P,1,<rshift>,1,1,212323,426
Control_TS_13_B,1,test,P,192,1,620,350,P,1,<rshift>,1,1,213323,344
Control_TS_13_B,1,test,P,193,2,820,350,P,1,<rshift>,1,1,214323,382
Control_TS_13_B,1,test,P,194,3,620,550,P,1,<rshift>,1,1,215323,351
Control_TS_13_B,1,test,P,195,3,620,550,P,1,<rshift>,1,1,216323,469
Control_TS_13_B,1,test,P,196,4,820,550,P,1,<rshift>,1,1,217323,365
Control_TS_13_B,1,test,P,197,2,820,350,P,1,<rshift>,1,1,218323,473
Control_TS_13_B,1,test,P,198,3,620,550,R,0,<rshift>,1,0,219323,368
Control_TS_13_B,1,test,P,199,2,820,350,P,1,<rshift>,1,1,220323,317
Control_TS_13_B,1,test,P,200,2,820,350,P,1,<rshift>,1,1,221323,338
Control_TS_13_B,1,test,P,201,3,620,550,P,1,<rshift>,1,1,222323,349
Control_TS_13_B,1,test,P,202,2,820,350,P,1,<rshift>,1,1,223323,303
Control_TS_13_B,1,test,P,203,3,620,550,R,0,<rshift>,1,0,224323,319
Control_TS_13_B,1,test,P,204,3,620,550,P,1,<rshift>,1,1,225323,400
Control_TS_13_B,1,test,P,205,1,620,350,P,1,<rshift>,1,1,226323,382
Control_TS_13_B,1,test,P,206,3,620,550,P,1,<rshift>,1,1,227323,315
Control_TS_13_B,1,test,P,207,4,820,550,P,1,<rshift>,1,1,228323,322
Control_TS_13_B,1,test,P,208,2,820,350,P,1,<rshift>,1,1,229323,353
Control_TS_13_B,1,test,P,209,1,620,350,P,1,<rshift>,1,1,230323,358
Control_TS_13_B,1,test,P,210,4,820,550,R,0,<rshift>,1,0,231323,266
Control_TS_13_B,1,test,P,211,3,620,550,R,0,<rshift>,1,0,232323,299
Control_TS_13_B,1,test,P,212,1,620,350,P,1,<rshift>,1,1,233323,330
Control_TS_13_B,1,test,P,213,1,620,350,P,1,<rshift>,1,1,234323,341
Control_TS_13_B,1,test,P,214,2,820,350,R,0,<rshift>,1,0,235323,307
Control_TS_13_B,1,test,P,215,4,820,550,P,1,<rshift>,1,1,236323,363
Control_TS_13_B,1,test,P,216,3,620,550,P,1,<rshift>,1,1,237323,365
Control_TS_13_B,1,test,P,217,1,620,350,P,1,<rshift>,1,1,238323,337
Control_TS_13_B,1,test,P,218,3,620,550,R,0,NONE,0,1,239323,950
Control_TS_13_B,1,test,P,219,4,820,550,P,1,<rshift>,1,1,240323,354
Control_TS_13_B,1,test,P,220,2,820,350,P,1,<rshift>,1,1,241323,361
Control_TS_13_B,1,test,P,221,4,820,550,P,1,<rshift>,1,1,242323,342
Control_TS_13_B,1,test,P,222,3,620,550,P,1,<rshift>,1,1,243323,345
Control_TS_13_B,1,test,P,223,4,820,550,P,1,<rshift>,1,1,244323,363
Control_TS_13_B,1,test,P,224,2,820,350,P,1,<rshift>,1,1,245323,372
Control_TS_13_B,1,test,P,225,2,820,350,P,1,<rshift>,1,1,246323,322
Control_TS_13_B,1,test,P,226,4,820,550,P,1,<rshift>,1,1,247323,314
Control_TS_13_B,1,test,P,227,3,620,550,R,0,NONE,0,1,248323,950
Control_TS_13_B,1,test,P,228,2,820,350,P,1,<rshift>,1,1,249323,342
Control_TS_13_B,1,test,P,229,1,620,350,P,1,<rshift>,1,1,250323,395
Control_TS_13_B,1,test,P,230,3,620,550,P,1,<rshift>,1,1,251323,381
Control_TS_13_B,1,test,P,231,2,820,350,P,1,<rshift>,1,1,252323,329
Control_TS_13_B,1,test,P,232,1,620,350,P,1,<rshift>,1,1,253323,368
Control_TS_13_B,1,test,P,233,4,820,550,P,1,<rshift>,1,1,254323,346
Control_TS_13_B,1,test,P,234,3,620,550,P,1,<rshift>,1,1,255323,366
Control_TS_13_B,1,test,P,235,4,820,550,P,1,<rshift>,1,1,256323,351
Control_TS_13_B,1,test,P,236,4,820,550,P,1,<rshift>,1,1,257323,343
Control_TS_13_B,1,test,P,237,3,620,550,P,1,<rshift>,1,1,258323,327
Control_TS_13_B,1,test,P,238,4,820,550,P,1,<rshift>,1,1,259323,324
Control_TS_13_B,1,test,P,239,1,620,350,P,1,<rshift>,1,1,260323,359
Control_TS_13_B,1,test,P,240,1,620,350,P,1,<rshift>,1,1,261323,351
Control_TS_13_B,1,test,P,241,2,820,350,R,0,NONE,0,1,262323,950
Control_TS_13_B,1,test,P,242,4,820,550,P,1,<rshift>,1,1,263323,355
Control_TS_13_B,1,test,P,243,4,820,550,P,1,<rshift>,1,1,264323,357
Control_TS_13_B,1,test,P,244,4,820,550,P,1,<rshift>,1,1,265323,415
Control_TS_13_B,1,test,P,245,1,620,350,P,1,<rshift>,1,1,266323,344
Control_TS_13_B,1,test,P,246,4,820,550,P,1,<rshift>,1,1,267323,332
Control_TS_13_B,1,test,P,247,3,620,550,R,0,NONE,0,1,268323,950
Control_TS_13_B,1,test,P,248,3,620,550,P,1,<rshift>,1,1,269323,397
Control_TS_13_B,1,test,P,249,3,620,550,P,1,<rshift>,1,1,270323,332
Control_TS_13_B,1,test,P,250,2,820,350,P,1,<rshift>,1,1,271323,352
Control_TS_13_B,1,test,P,251,2,820,350,P,1,<rshift>,1,1,272323,328
Control_TS_13_B,1,test,P,252,4,820,550,P,1,<rshift>,1,1,273323,343
Control_TS_13_B,1,test,P,253,4,820,550,P,1,<rshift>,1,1,274323,308
Control_TS_13_B,1,test,P,254,2,820,350,P,1,<rshift>,1,1,275323,342
Control_TS_13_B,1,test,P,255,3,620,550,P,1,<rshift>,1,1,276323,356
Control_TS_13_B,1,test,P,256,3,620,550,P,1,<rshift>,1,1,277324,337
Control_TS_13_B,1,test,P,257,3,620,550,P,1,<rshift>,1,1,278323,339
Control_TS_13_B,1,test,P,258,2,820,350,P,1,<rshift>,1,1,279323,332
Control_TS_13_B,1,test,P,259,2,820,350,R,0,NONE,0,1,280323,950
Control_TS_13_B,1,test,P,260,4,820,550,P,1,<rshift>,1,1,281323,417
Control_TS_13_B,1,test,P,261,1,620,350,P,1,<rshift>,1,1,282323,373
Control_TS_13_B,1,test,P,262,3,620,550,P,1,<rshift>,1,1,283323,440
Control_TS_13_B,1,test,P,263,1,620,350,P,1,<rshift>,1,1,284323,373
Control_TS_13_B,1,test,P,264,1,620,350,R,0,NONE,0,1,285323,950
Control_TS_13_B,1,test,P,265,4,820,550,P,1,<rshift>,1,1,286323,344
Control_TS_13_B,1,test,P,266,2,820,350,P,1,<rshift>,1,1,287323,372
Control_TS_13_B,1,test,P,267,1,620,350,R,0,NONE,0,1,288323,950
Control_TS_13_B,1,test,P,268,4,820,550,P,1,<rshift>,1,1,289323,340
Control_TS_13_B,1,test,P,269,2,820,350,P,1,<rshift>,1,1,290323,336
Control_TS_13_B,1,test,P,270,1,620,350,R,0,NONE,0,1,291323,950
Control_TS_13_B,1,test,P,271,4,820,550,P,1,<rshift>,1,1,292323,331
Control_TS_13_B,1,test,P,272,1,620,350,P,1,<rshift>,1,1,293323,357
Control_TS_13_B,1,test,P,273,2,820,350,P,1,<rshift>,1,1,294323,361
Control_TS_13_B,1,test,P,274,2,820,350,P,1,<rshift>,1,1,295323,447
Control_TS_13_B,1,test,P,275,2,820,350,P,1,<rshift>,1,1,296323,344
Control_TS_13_B,1,test,P,276,2,820,350,P,1,<rshift>,1,1,297323,359
Control_TS_13_B,1,test,P,277,4,820,550,R,0,<rshift>,1,0,298323,325
Control_TS_13_B,1,test,P,278,2,820,350,P,1,<rshift>,1,1,299323,328
Control_TS_13_B,1,test,P,279,2,820,350,R,0,NONE,0,1,300323,950
Control_TS_13_B,1,test,P,280,3,620,550,P,1,<rshift>,1,1,301323,392
Control_TS_13_B,1,test,P,281,2,820,350,P,1,<rshift>,1,1,302323,373
Control_TS_13_B,1,test,P,282,1,620,350,R,0,NONE,0,1,303322,951
Control_TS_13_B,1,test,P,283,4,820,550,P,1,<rshift>,1,1,304322,370
Control_TS_13_B,1,test,P,284,4,820,550,P,1,<rshift>,1,1,305323,357
Control_TS_13_B,1,test,P,285,2,820,350,P,1,<rshift>,1,1,306323,385
Control_TS_13_B,1,test,P,286,3,620,550,R,0,NONE,0,1,307323,950
Control_TS_13_B,1,test,P,287,2,820,350,R,0,NONE,0,1,308323,950
Control_TS_13_B,1,test,P,288,3,620,550,P,1,<rshift>,1,1,309323,358
Control_TS_13_B,1,test,P,289,4,820,550,P,1,<rshift>,1,1,310323,344
Control_TS_13_B,1,test,P,290,2,820,350,P,1,<rshift>,1,1,311323,371
Control_TS_13_B,1,test,P,291,4,820,550,P,1,<rshift>,1,1,312323,383
Control_TS_13_B,1,test,P,292,4,820,550,P,1,<rshift>,1,1,313323,345
Control_TS_13_B,1,test,P,293,3,620,550,P,1,<rshift>,1,1,314323,383
Control_TS_13_B,1,test,P,294,3,620,550,R,0,<rshift>,1,0,315323,400
Control_TS_13_B,1,test,P,295,4,820,550,P,1,<rshift>,1,1,316323,323
Control_TS_13_B,1,test,P,296,2,820,350,P,1,<rshift>,1,1,317323,325
Control_TS_13_B,1,test,P,297,4,820,550,P,1,<rshift>,1,1,318323,348
Control_TS_13_B,1,test,P,298,1,620,350,R,0,NONE,0,1,319323,950
Control_TS_13_B,1,test,P,299,3,620,550,P,1,<rshift>,1,1,320323,370
Control_TS_13_B,1,test,P,300,4,820,550,P,1,<rshift>,1,1,321323,515
Control_TS_13_B,2,practice,R,1,1,620,350,P,0,NONE,0,1,332497,950
Control_TS_13_B,2,practice,R,2,2,820,350,R,1,<rshift>,1,1,333496,367
Control_TS_13_B,2,practice,R,3,1,620,350,R,1,<rshift>,1,1,334496,345
Control_TS_13_B,2,practice,R,4,4,820,550,R,1,<rshift>,1,1,335496,345
Control_TS_13_B,2,practice,R,5,3,620,550,R,1,<rshift>,1,1,336496,354
Control_TS_13_B,2,practice,R,6,2,820,350,R,1,<rshift>,1,1,337496,380
Control_TS_13_B,2,practice,R,7,2,820,350,R,1,<rshift>,1,1,338496,356
Control_TS_13_B,2,practice,R,8,4,820,550,R,1,<rshift>,1,1,339496,339
Control_TS_13_B,2,practice,R,9,1,620,350,P,0,<rshift>,1,0,340496,307
Control_TS_13_B,2,practice,R,10,2,820,350,R,1,<rshift>,1,1,341863,515
Control_TS_13_B,3,test,R,1,1,620,350,R,1,<rshift>,1,1,349251,405
Control_TS_13_B,3,test,R,2,3,620,550,R,1,<rshift>,1,1,350250,394
Control_TS_13_B,3,test,R,3,2,820,350,R,1,<rshift>,1,1,351251,329
Control_TS_13_B,3,test,R,4,4,820,550,R,1,<rshift>,1,1,352250,356
Control_TS_13_B,3,test,R,5,1,620,350,P,0,NONE,0,1,353250,950
Control_TS_13_B,3,test,R,6,4,820,550,R,1,<rshift>,1,1,354250,343
Control_TS_13_B,3,test,R,7,4,820,550,R,1,<rshift>,1,1,355250,365
Control_TS_13_B,3,test,R,8,2,820,350,R,1,<rshift>,1,1,356250,341
Control_TS_13_B,3,test,R,9,2,820,350,P,0,<rshift>,1,0,357250,338
Control_TS_13_B,3,test,R,10,3,620,550,R,1,<rshift>,1,1,358250,548
Control_TS_13_B,3,test,R,11,2,820,350,R,1,<rshift>,1,1,359250,351
Control_TS_13_B,3,test,R,12,3,620,550,R,1,<rshift>,1,1,360250,325
Control_TS_13_B,3,test,R,13,4,820,550,R,1,<rshift>,1,1,361250,347
Control_TS_13_B,3,test,R,14,1,620,350,P,0,NONE,0,1,362250,950
Control_TS_13_B,3,test,R,15,2,820,350,P,0,NONE,0,1,363250,950
Control_TS_13_B,3,test,R,16,2,820,350,R,1,<rshift>,1,1,364250,400
Control_TS_13_B,3,test,R,17,2,820,350,R,1,<rshift>,1,1,365250,414
Control_TS_13_B,3,test,R,18,3,620,550,P,0,NONE,0,1,366250,950
Control_TS_13_B,3,test,R,19,2,820,350,R,1,<rshift>,1,1,367249,347
Control_TS_13_B,3,test,R,20,4,820,550,R,1,<rshift>,1,1,368250,344
Control_TS_13_B,3,test,R,21,1,620,350,R,1,<rshift>,1,1,369250,321
Control_TS_13_B,3,test,R,22,3,620,550,R,1,<rshift>,1,1,370250,515
Control_TS_13_B,3,test,R,23,3,620,550,R,1,<rshift>,1,1,371250,373
Control_TS_13_B,3,test,R,24,2,820,350,P,0,NONE,0,1,372250,950
Control_TS_13_B,3,test,R,25,2,820,350,P,0,NONE,0,1,373250,950
Control_TS_13_B,3,test,R,26,2,820,350,P,0,NONE,0,1,374250,950
Control_TS_13_B,3,test,R,27,2,820,350,R,1,<rshift>,1,1,375250,354
Control_TS_13_B,3,test,R,28,3,620,550,R,1,<rshift>,1,1,376250,365
Control_TS_13_B,3,test,R,29,1,620,350,P,0,<rshift>,1,0,377250,350
Control_TS_13_B,3,test,R,30,4,820,550,R,1,<rshift>,1,1,378250,338
Control_TS_13_B,3,test,R,31,2,820,350,P,0,<rshift>,1,0,379250,331
Control_TS_13_B,3,test,R,32,4,820,550,R,1,<rshift>,1,1,380250,340
Control_TS_13_B,3,test,R,33,4,820,550,R,1,<rshift>,1,1,381250,350
Control_TS_13_B,3,test,R,34,1,620,350,R,1,<rshift>,1,1,382250,366
Control_TS_13_B,3,test,R,35,2,820,350,R,1,<rshift>,1,1,383250,347
Control_TS_13_B,3,test,R,36,3,620,550,R,1,<rshift>,1,1,384250,335
Control_TS_13_B,3,test,R,37,3,620,550,P,0,NONE,0,1,385250,950
Control_TS_13_B,3,test,R,38,3,620,550,R,1,<rshift>,1,1,386250,385
Control_TS_13_B,3,test,R,39,1,620,350,R,1,<rshift>,1,1,387250,371
Control_TS_13_B,3,test,R,40,1,620,350,R,1,<rshift>,1,1,388250,347
Control_TS_13_B,3,test,R,41,2,820,350,R,1,<rshift>,1,1,389250,317
Control_TS_13_B,3,test,R,42,3,620,550,R,1,<rshift>,1,1,390250,301
Control_TS_13_B,3,test,R,43,1,620,350,R,1,<rshift>,1,1,391250,330
Control_TS_13_B,3,test,R,44,3,620,550,R,1,<rshift>,1,1,392250,355
Control_TS_13_B,3,test,R,45,3,620,550,R,1,<rshift>,1,1,393250,336
Control_TS_13_B,3,test,R,46,3,620,550,R,1,<rshift>,1,1,394250,347
Control_TS_13_B,3,test,R,47,2,820,350,R,1,<rshift>,1,1,395250,245
Control_TS_13_B,3,test,R,48,1,620,350,R,1,<rshift>,1,1,396250,326
Control_TS_13_B,3,test,R,49,1,620,350,R,1,<rshift>,1,1,397250,327
Control_TS_13_B,3,test,R,50,2,820,350,R,1,<rshift>,1,1,398250,295
Control_TS_13_B,3,test,R,51,1,620,350,P,0,<rshift>,1,0,399250,300
Control_TS_13_B,3,test,R,52,1,620,350,P,0,NONE,0,1,400250,950
Control_TS_13_B,3,test,R,53,1,620,350,P,0,NONE,0,1,401250,950
Control_TS_13_B,3,test,R,54,3,620,550,R,1,<rshift>,1,1,402250,339
Control_TS_13_B,3,test,R,55,3,620,550,R,1,<rshift>,1,1,403250,316
Control_TS_13_B,3,test,R,56,4,820,550,R,1,<rshift>,1,1,404250,338
Control_TS_13_B,3,test,R,57,4,820,550,R,1,<rshift>,1,1,405250,336
Control_TS_13_B,3,test,R,58,2,820,350,R,1,<rshift>,1,1,406250,340
Control_TS_13_B,3,test,R,59,1,620,350,R,1,<rshift>,1,1,407250,355
Control_TS_13_B,3,test,R,60,3,620,550,R,1,<rshift>,1,1,408250,315
Control_TS_13_B,3,test,R,61,4,820,550,R,1,<rshift>,1,1,409250,295
Control_TS_13_B,3,test,R,62,2,820,350,R,1,<rshift>,1,1,410250,298
Control_TS_13_B,3,test,R,63,2,820,350,R,1,<rshift>,1,1,411250,323
Control_TS_13_B,3,test,R,64,2,820,350,R,1,<rshift>,1,1,412250,330
Control_TS_13_B,3,test,R,65,4,820,550,P,0,<rshift>,1,0,413250,316
Control_TS_13_B,3,test,R,66,3,620,550,R,1,<rshift>,1,1,414250,365
Control_TS_13_B,3,test,R,67,4,820,550,P,0,NONE,0,1,415250,950
Control_TS_13_B,3,test,R,68,1,620,350,P,0,NONE,0,1,416250,950
Control_TS_13_B,3,test,R,69,1,620,350,R,1,<rshift>,1,1,417250,515
Control_TS_13_B,3,test,R,70,4,820,550,R,1,<rshift>,1,1,418250,380
Control_TS_13_B,3,test,R,71,1,620,350,R,1,<rshift>,1,1,419250,362
Control_TS_13_B,3,test,R,72,1,620,350,R,1,<rshift>,1,1,420250,330
Control_TS_13_B,3,test,R,73,4,820,550,P,0,<rshift>,1,0,421250,312
Control_TS_13_B,3,test,R,74,3,620,550,R,1,<rshift>,1,1,422250,374
Control_TS_13_B,3,test,R,75,3,620,550,R,1,<rshift>,1,1,423250,397
Control_TS_13_B,3,test,R,76,2,820,350,R,1,<rshift>,1,1,424250,570
Control_TS_13_B,3,test,R,77,2,820,350,R,1,<rshift>,1,1,425250,347
Control_TS_13_B,3,test,R,78,1,620,350,R,1,<rshift>,1,1,426250,349
Control_TS_13_B,3,test,R,79,1,620,350,R,1,<rshift>,1,1,427250,389
Control_TS_13_B,3,test,R,80,4,820,550,P,0,NONE,0,1,428250,950
Control_TS_13_B,3,test,R,81,1,620,350,R,1,<rshift>,1,1,429250,370
Control_TS_13_B,3,test,R,82,1,620,350,R,1,<rshift>,1,1,430250,336
Control_TS_13_B,3,test,R,83,3,620,550,R,1,<rshift>,1,1,431250,323
Control_TS_13_B,3,test,R,84,2,820,350,R,1,<rshift>,1,1,432250,274
Control_TS_13_B,3,test,R,85,2,820,350,R,1,<rshift>,1,1,433250,301
Control_TS_13_B,3,test,R,86,4,820,550,R,1,<rshift>,1,1,434250,344
Control_TS_13_B,3,test,R,87,4,820,550,P,0,<rshift>,1,0,435250,311
Control_TS_13_B,3,test,R,88,1,620,350,R,1,<rshift>,1,1,436250,368
Control_TS_13_B,3,test,R,89,1,620,350,R,1,<rshift>,1,1,437250,329
Control_TS_13_B,3,test,R,90,1,620,350,R,1,<rshift>,1,1,438250,315
Control_TS_13_B,3,test,R,91,3,620,550,R,1,<rshift>,1,1,439250,326
Control_TS_13_B,3,test,R,92,3,620,550,R,1,<rshift>,1,1,440250,302
Control_TS_13_B,3,test,R,93,1,620,350,P,0,<rshift>,1,0,441250,358
Control_TS_13_B,3,test,R,94,3,620,550,P,0,<rshift>,1,0,442250,355
Control_TS_13_B,3,test,R,95,2,820,350,R,1,<rshift>,1,1,443250,294
Control_TS_13_B,3,test,R,96,2,820,350,R,1,<rshift>,1,1,444250,333
Control_TS_13_B,3,test,R,97,4,820,550,R,1,<rshift>,1,1,445250,357
Control_TS_13_B,3,test,R,98,1,620,350,R,1,<rshift>,1,1,446250,274
Control_TS_13_B,3,test,R,99,4,820,550,R,1,<rshift>,1,1,447250,333
Control_TS_13_B,3,test,R,100,4,820,550,R,1,<rshift>,1,1,448250,359
Control_TS_13_B,3,test,R,101,3,620,550,R,1,<rshift>,1,1,449250,331
Control_TS_13_B,3,test,R,102,2,820,350,R,1,<rshift>,1,1,450250,279
Control_TS_13_B,3,test,R,103,3,620,550,R,1,<rshift>,1,1,451250,653
Control_TS_13_B,3,test,R,104,1,620,350,R,1,<rshift>,1,1,452250,366
Control_TS_13_B,3,test,R,105,3,620,550,P,0,<rshift>,1,0,453250,348
Control_TS_13_B,3,test,R,106,3,620,550,R,1,<rshift>,1,1,454250,442
Control_TS_13_B,3,test,R,107,4,820,550,R,1,<rshift>,1,1,455250,313
Control_TS_13_B,3,test,R,108,3,620,550,R,1,<rshift>,1,1,456250,350
Control_TS_13_B,3,test,R,109,3,620,550,R,1,<rshift>,1,1,457250,327
Control_TS_13_B,3,test,R,110,1,620,350,P,0,NONE,0,1,458250,950
Control_TS_13_B,3,test,R,111,3,620,550,R,1,<rshift>,1,1,459250,370
Control_TS_13_B,3,test,R,112,3,620,550,R,1,<rshift>,1,1,460250,365
Control_TS_13_B,3,test,R,113,2,820,350,P,0,NONE,0,1,461250,950
Control_TS_13_B,3,test,R,114,1,620,350,R,1,<rshift>,1,1,462250,341
Control_TS_13_B,3,test,R,115,2,820,350,R,1,<rshift>,1,1,463250,360
Control_TS_13_B,3,test,R,116,2,820,350,R,1,<rshift>,1,1,464250,370
Control_TS_13_B,3,test,R,117,4,820,550,R,1,<rshift>,1,1,465250,284
Control_TS_13_B,3,test,R,118,2,820,350,R,1,<rshift>,1,1,466250,328
Control_TS_13_B,3,test,R,119,3,620,550,P,0,NONE,0,1,467250,950
Control_TS_13_B,3,test,R,120,4,820,550,R,1,<rshift>,1,1,468250,519
Control_TS_13_B,3,test,R,121,1,620,350,P,0,NONE,0,1,469250,950
Control_TS_13_B,3,test,R,122,4,820,550,R,1,<rshift>,1,1,470250,394
Control_TS_13_B,3,test,R,123,4,820,550,R,1,<rshift>,1,1,471250,353
Control_TS_13_B,3,test,R,124,3,620,550,R,1,<rshift>,1,1,472250,461
Control_TS_13_B,3,test,R,125,1,620,350,R,1,<rshift>,1,1,473250,515
Control_TS_13_B,3,test,R,126,3,620,550,R,1,<rshift>,1,1,474250,515
Control_TS_13_B,3,test,R,127,1,620,350,R,1,<rshift>,1,1,475250,412
Control_TS_13_B,3,test,R,128,2,820,350,P,0,NONE,0,1,476250,950
Control_TS_13_B,3,test,R,129,3,620,550,R,1,<rshift>,1,1,477250,399
Control_TS_13_B,3,test,R,130,4,820,550,R,1,<rshift>,1,1,478250,418
Control_TS_13_B,3,test,R,131,1,620,350,R,1,<rshift>,1,1,479250,382
Control_TS_13_B,3,test,R,132,2,820,350,R,1,<rshift>,1,1,480250,433
Control_TS_13_B,3,test,R,133,4,820,550,P,0,NONE,0,1,481250,950
Control_TS_13_B,3,test,R,134,2,820,350,R,1,<rshift>,1,1,482250,423
Control_TS_13_B,3,test,R,135,2,820,350,R,1,<rshift>,1,1,483250,340
Control_TS_13_B,3,test,R,136,4,820,550,P,0,NONE,0,1,484250,950
Control_TS_13_B,3,test,R,137,3,620,550,R,1,<rshift>,1,1,485250,348
Control_TS_13_B,3,test,R,138,4,820,550,R,1,<rshift>,1,1,486250,453
Control_TS_13_B,3,test,R,139,3,620,550,R,1,<rshift>,1,1,487250,435
Control_TS_13_B,3,test,R,140,1,620,350,P,0,NONE,0,1,488250,950
Control_TS_13_B,3,test,R,141,2,820,350,R,1,<rshift>,1,1,489250,402
Control_TS_13_B,3,test,R,142,2,820,350,R,1,<rshift>,1,1,490250,371
Control_TS_13_B,3,test,R,143,1,620,350,R,1,<rshift>,1,1,491250,608
Control_TS_13_B,3,test,R,144,3,620,550,R,1,<rshift>,1,1,492250,400
Control_TS_13_B,3,test,R,145,4,820,550,P,0,NONE,0,1,493250,950
Control_TS_13_B,3,test,R,146,1,620,350,R,1,<rshift>,1,1,494250,411
Control_TS_13_B,3,test,R,147,3,620,550,P,0,<rshift>,1,0,495250,352
Control_TS_13_B,3,test,R,148,2,820,350,R,1,<rshift>,1,1,496250,403
Control_TS_13_B,3,test,R,149,1,620,350,P,0,NONE,0,1,497250,950
Control_TS_13_B,3,test,R,150,3,620,550,R,1,<rshift>,1,1,498250,515
Control_TS_13_B,3,test,R,151,4,820,550,R,1,<rshift>,1,1,499250,454
Control_TS_13_B,3,test,R,152,2,820,350,R,1,<rshift>,1,1,500250,353
Control_TS_13_B,3,test,R,153,4,820,550,R,1,<rshift>,1,1,501250,377
Control_TS_13_B,3,test,R,154,2,820,350,R,1,<rshift>,1,1,502250,365
Control_TS_13_B,3,test,R,155,3,620,550,R,1,<rshift>,1,1,503250,444
Control_TS_13_B,3,test,R,156,2,820,350,P,0,NONE,0,1,504250,950
Control_TS_13_B,3,test,R,157,3,620,550,R,1,<rshift>,1,1,505250,384
Control_TS_13_B,3,test,R,158,1,620,350,R,1,<rshift>,1,1,506250,414
Control_TS_13_B,3,test,R,159,1,620,350,R,1,<rshift>,1,1,507250,415
Control_TS_13_B,3,test,R,160,1,620,350,R,1,<rshift>,1,1,508250,484
Control_TS_13_B,3,test,R,161,3,620,550,R,1,<rshift>,1,1,509250,466
Control_TS_13_B,3,test,R,162,4,820,550,P,0,NONE,0,1,510250,950
Control_TS_13_B,3,test,R,163,1,620,350,R,1,<rshift>,1,1,511250,486
Control_TS_13_B,3,test,R,164,3,620,550,R,1,<rshift>,1,1,512250,418
Control_TS_13_B,3,test,R,165,1,620,350,R,1,<rshift>,1,1,513250,394
Control_TS_13_B,3,test,R,166,3,620,550,R,1,<rshift>,1,1,514250,386
Control_TS_13_B,3,test,R,167,2,820,350,R,1,<rshift>,1,1,515250,370
Control_TS_13_B,3,test,R,168,4,820,550,R,1,<rshift>,1,1,516250,373
Control_TS_13_B,3,test,R,169,1,620,350,P,0,<rshift>,1,0,517250,357
Control_TS_13_B,3,test,R,170,4,820,550,R,1,<rshift>,1,1,518250,446
Control_TS_13_B,3,test,R,171,3,620,550,R,1,<rshift>,1,1,519250,417
Control_TS_13_B,3,test,R,172,3,620,550,R,1,<rshift>,1,1,520250,376
Control_TS_13_B,3,test,R,173,4,820,550,P,0,NONE,0,1,521250,950
Control_TS_13_B,3,test,R,174,2,820,350,R,1,<rshift>,1,1,522250,427
Control_TS_13_B,3,test,R,175,3,620,550,R,1,<rshift>,1,1,523250,467
Control_TS_13_B,3,test,R,176,1,620,350,R,1,<rshift>,1,1,524250,386
Control_TS_13_B,3,test,R,177,2,820,350,R,1,<rshift>,1,1,525250,394
Control_TS_13_B,3,test,R,178,3,620,550,R,1,<rshift>,1,1,526250,428
Control_TS_13_B,3,test,R,179,2,820,350,R,1,<rshift>,1,1,527250,384
Control_TS_13_B,3,test,R,180,3,620,550,R,1,<rshift>,1,1,528250,397
Control_TS_13_B,3,test,R,181,3,620,550,P,0,NONE,0,1,529250,950
Control_TS_13_B,3,test,R,182,3,620,550,R,1,<rshift>,1,1,530250,392
Control_TS_13_B,3,test,R,183,2,820,350,R,1,<rshift>,1,1,531250,378
Control_TS_13_B,3,test,R,184,2,820,350,P,0,<rshift>,1,0,532250,354
Control_TS_13_B,3,test,R,185,1,620,350,R,1,<rshift>,1,1,533250,360
Control_TS_13_B,3,test,R,186,4,820,550,R,1,<rshift>,1,1,534250,405
Control_TS_13_B,3,test,R,187,3,620,550,P,0,NONE,0,1,535250,950
Control_TS_13_B,3,test,R,188,1,620,350,R,1,<rshift>,1,1,536250,397
Control_TS_13_B,3,test,R,189,1,620,350,P,0,NONE,0,1,537250,950
Control_TS_13_B,3,test,R,190,2,820,350,R,1,<rshift>,1,1,538250,379
Control_TS_13_B,3,test,R,191,3,620,550,R,1,<rshift>,1,1,539250,396
Control_TS_13_B,3,test,R,192,3,620,550,P,0,<rshift>,1,0,540250,346
Control_TS_13_B,3,test,R,193,2,820,350,R,1,<rshift>,1,1,541250,358
Control_TS_13_B,3,test,R,194,1,620,350,P,0,NONE,0,1,542250,950
Control_TS_13_B,3,test,R,195,4,820,550,R,1,<rshift>,1,1,543250,408
Control_TS_13_B,3,test,R,196,4,820,550,R,1,<rshift>,1,1,544250,391
Control_TS_13_B,3,test,R,197,4,820,550,R,1,<rshift>,1,1,545250,384
Control_TS_13_B,3,test,R,198,2,820,350,R,1,<rshift>,1,1,546250,405
Control_TS_13_B,3,test,R,199,4,820,550,R,1,<rshift>,1,1,547250,338
Control_TS_13_B,3,test,R,200,2,820,350,R,1,<rshift>,1,1,548250,362
Control_TS_13_B,3,test,R,201,3,620,550,R,1,<rshift>,1,1,549250,355
Control_TS_13_B,3,test,R,202,2,820,350,R,1,<rshift>,1,1,550250,372
Control_TS_13_B,3,test,R,203,4,820,550,R,1,<rshift>,1,1,551250,350
Control_TS_13_B,3,test,R,204,3,620,550,R,1,<rshift>,1,1,552250,365
Control_TS_13_B,3,test,R,205,1,620,350,P,0,NONE,0,1,553250,950
Control_TS_13_B,3,test,R,206,2,820,350,P,0,NONE,0,1,554250,950
Control_TS_13_B,3,test,R,207,4,820,550,R,1,<rshift>,1,1,555250,411
Control_TS_13_B,3,test,R,208,2,820,350,R,1,<rshift>,1,1,556250,415
Control_TS_13_B,3,test,R,209,4,820,550,R,1,<rshift>,1,1,557250,405
Control_TS_13_B,3,test,R,210,1,620,350,R,1,<rshift>,1,1,558250,385
Control_TS_13_B,3,test,R,211,1,620,350,R,1,<rshift>,1,1,559250,492
Control_TS_13_B,3,test,R,212,3,620,550,R,1,<rshift>,1,1,560250,382
Control_TS_13_B,3,test,R,213,1,620,350,R,1,<rshift>,1,1,561250,365
Control_TS_13_B,3,test,R,214,4,820,550,R,1,<rshift>,1,1,562250,354
Control_TS_13_B,3,test,R,215,2,820,350,P,0,<rshift>,1,0,563250,343
Control_TS_13_B,3,test,R,216,3,620,550,R,1,<rshift>,1,1,564250,346
Control_TS_13_B,3,test,R,217,1,620,350,R,1,<rshift>,1,1,565250,328
Control_TS_13_B,3,test,R,218,4,820,550,R,1,<rshift>,1,1,566250,325
Control_TS_13_B,3,test,R,219,4,820,550,P,0,NONE,0,1,567250,950
Control_TS_13_B,3,test,R,220,3,620,550,R,1,<rshift>,1,1,568250,378
Control_TS_13_B,3,test,R,221,4,820,550,R,1,<rshift>,1,1,569250,356
Control_TS_13_B,3,test,R,222,1,620,350,R,1,<rshift>,1,1,570250,354
Control_TS_13_B,3,test,R,223,2,820,350,P,0,<rshift>,1,0,571250,350
Control_TS_13_B,3,test,R,224,4,820,550,R,1,<rshift>,1,1,572250,383
Control_TS_13_B,3,test,R,225,4,820,550,R,1,<rshift>,1,1,573250,415
Control_TS_13_B,3,test,R,226,1,620,350,R,1,<rshift>,1,1,574250,377
Control_TS_13_B,3,test,R,227,3,620,550,R,1,<rshift>,1,1,575250,378
Control_TS_13_B,3,test,R,228,2,820,350,R,1,<rshift>,1,1,576250,368
Control_TS_13_B,3,test,R,229,1,620,350,R,1,<rshift>,1,1,577250,359
Control_TS_13_B,3,test,R,230,1,620,350,R,1,<rshift>,1,1,578250,343
Control_TS_13_B,3,test,R,231,4,820,550,R,1,<rshift>,1,1,579250,331
Control_TS_13_B,3,test,R,232,3,620,550,R,1,<rshift>,1,1,580250,338
Control_TS_13_B,3,test,R,233,4,820,550,R,1,<rshift>,1,1,581250,323
Control_TS_13_B,3,test,R,234,3,620,550,R,1,<rshift>,1,1,582250,304
Control_TS_13_B,3,test,R,235,4,820,550,R,1,<rshift>,1,1,583250,317
Control_TS_13_B,3,test,R,236,2,820,350,R,1,<rshift>,1,1,584250,336
Control_TS_13_B,3,test,R,237,1,620,350,R,1,<rshift>,1,1,585250,316
Control_TS_13_B,3,test,R,238,2,820,350,R,1,<rshift>,1,1,586250,299
Control_TS_13_B,3,test,R,239,3,620,550,R,1,<rshift>,1,1,587250,272
Control_TS_13_B,3,test,R,240,2,820,350,R,1,<rshift>,1,1,588250,263
Control_TS_13_B,3,test,R,241,4,820,550,R,1,<rshift>,1,1,589250,292
Control_TS_13_B,3,test,R,242,2,820,350,R,1,<rshift>,1,1,590250,312
Control_TS_13_B,3,test,R,243,2,820,350,R,1,<rshift>,1,1,591250,331
Control_TS_13_B,3,test,R,244,1,620,350,R,1,<rshift>,1,1,592250,307
Control_TS_13_B,3,test,R,245,1,620,350,R,1,<rshift>,1,1,593250,358
Control_TS_13_B,3,test,R,246,3,620,550,R,1,<rshift>,1,1,594250,326
Control_TS_13_B,3,test,R,247,2,820,350,R,1,<rshift>,1,1,595250,440
Control_TS_13_B,3,test,R,248,3,620,550,R,1,<rshift>,1,1,596250,389
Control_TS_13_B,3,test,R,249,4,820,550,R,1,<rshift>,1,1,597250,468
Control_TS_13_B,3,test,R,250,3,620,550,R,1,<rshift>,1,1,598250,373
Control_TS_13_B,3,test,R,251,2,820,350,R,1,<rshift>,1,1,599250,397
Control_TS_13_B,3,test,R,252,2,820,350,R,1,<rshift>,1,1,600250,351
Control_TS_13_B,3,test,R,253,2,820,350,R,1,<rshift>,1,1,601250,318
Control_TS_13_B,3,test,R,254,3,620,550,R,1,<rshift>,1,1,602250,367
Control_TS_13_B,3,test,R,255,1,620,350,R,1,<rshift>,1,1,603250,316
Control_TS_13_B,3,test,R,256,2,820,350,R,1,<rshift>,1,1,604250,321
Control_TS_13_B,3,test,R,257,2,820,350,R,1,<rshift>,1,1,605250,335
Control_TS_13_B,3,test,R,258,3,620,550,P,0,<rshift>,1,0,606250,293
Control_TS_13_B,3,test,R,259,4,820,550,R,1,<rshift>,1,1,607250,353
Control_TS_13_B,3,test,R,260,1,620,350,R,1,<rshift>,1,1,608250,351
Control_TS_13_B,3,test,R,261,4,820,550,R,1,<rshift>,1,1,609250,328
Control_TS_13_B,3,test,R,262,2,820,350,P,0,<rshift>,1,0,610250,283
Control_TS_13_B,3,test,R,263,2,820,350,R,1,<rshift>,1,1,611250,336
Control_TS_13_B,3,test,R,264,3,620,550,R,1,<rshift>,1,1,612250,255
Control_TS_13_B,3,test,R,265,4,820,550,R,1,<rshift>,1,1,613250,297
Control_TS_13_B,3,test,R,266,4,820,550,P,0,NONE,0,1,614250,950
Control_TS_13_B,3,test,R,267,4,820,550,R,1,<rshift>,1,1,615250,442
Control_TS_13_B,3,test,R,268,1,620,350,R,1,<rshift>,1,1,616250,452
Control_TS_13_B,3,test,R,269,2,820,350,P,0,NONE,0,1,617250,950
Control_TS_13_B,3,test,R,270,2,820,350,R,1,<rshift>,1,1,618250,514
Control_TS_13_B,3,test,R,271,3,620,550,P,0,<rshift>,1,0,619250,325
Control_TS_13_B,3,test,R,272,2,820,350,R,1,<rshift>,1,1,620250,444
Control_TS_13_B,3,test,R,273,3,620,550,R,1,<rshift>,1,1,621250,392
Control_TS_13_B,3,test,R,274,4,820,550,P,0,NONE,0,1,622250,950
Control_TS_13_B,3,test,R,275,2,820,350,R,1,<rshift>,1,1,623250,365
Control_TS_13_B,3,test,R,276,3,620,550,R,1,<rshift>,1,1,624250,410
Control_TS_13_B,3,test,R,277,3,620,550,R,1,<rshift>,1,1,625250,362
Control_TS_13_B,3,test,R,278,1,620,350,R,1,<rshift>,1,1,626250,328
Control_TS_13_B,3,test,R,279,1,620,350,R,1,<rshift>,1,1,627250,365
Control_TS_13_B,3,test,R,280,2,820,350,R,1,<rshift>,1,1,628250,373
Control_TS_13_B,3,test,R,281,4,820,550,R,1,<rshift>,1,1,629250,345
Control_TS_13_B,3,test,R,282,2,820,350,R,1,<rshift>,1,1,630250,362
Control_TS_13_B,3,test,R,283,2,820,350,R,1,<rshift>,1,1,631250,351
Control_TS_13_B,3,test,R,284,3,620,550,R,1,<rshift>,1,1,632250,294
Control_TS_13_B,3,test,R,285,4,820,550,R,1,<rshift>,1,1,633250,372
Control_TS_13_B,3,test,R,286,2,820,350,P,0,<rshift>,1,0,634250,446
Control_TS_13_B,3,test,R,287,2,820,350,R,1,<rshift>,1,1,635250,431
Control_TS_13_B,3,test,R,288,4,820,550,R,1,<rshift>,1,1,636250,339
Control_TS_13_B,3,test,R,289,1,620,350,R,1,<rshift>,1,1,637250,348
Control_TS_13_B,3,test,R,290,1,620,350,R,1,<rshift>,1,1,638250,381
Control_TS_13_B,3,test,R,291,1,620,350,R,1,<rshift>,1,1,639250,773
Control_TS_13_B,3,test,R,292,1,620,350,R,1,<rshift>,1,1,640250,330
Control_TS_13_B,3,test,R,293,3,620,550,P,0,NONE,0,1,641250,950
Control_TS_13_B,3,test,R,294,2,820,350,R,1,<rshift>,1,1,642250,386
Control_TS_13_B,3,test,R,295,4,820,550,P,0,NONE,0,1,643250,950
Control_TS_13_B,3,test,R,296,4,820,550,P,0,NONE,0,1,644250,950
Control_TS_13_B,3,test,R,297,4,820,550,R,1,<rshift>,1,1,645250,400
Control_TS_13_B,3,test,R,298,2,820,350,R,1,<rshift>,1,1,646250,451
Control_TS_13_B,3,test,R,299,4,820,550,P,0,NONE,0,1,647250,950
Control_TS_13_B,3,test,R,300,1,620,350,R,1,<rshift>,1,1,648250,404
