subnum,block,type,correctresponse,trial,choice,x,y,stim,present,response,responded,corr,starttime,rt
Control_TS_26_A,0,practice,P,1,3,620,550,R,0,NONE,0,1,17144,950
Control_TS_26_A,0,practice,P,2,2,820,350,P,1,<rshift>,1,1,18143,358
Control_TS_26_A,0,practice,P,3,4,820,550,P,1,<rshift>,1,1,19143,661
Control_TS_26_A,0,practice,P,4,1,620,350,P,1,<rshift>,1,1,20144,374
Control_TS_26_A,0,practice,P,5,1,620,350,P,1,<rshift>,1,1,21143,331
Control_TS_26_A,0,practice,P,6,2,820,350,P,1,<rshift>,1,1,22143,301
Control_TS_26_A,0,practice,P,7,3,620,550,P,1,<rshift>,1,1,23144,423
Control_TS_26_A,0,practice,P,8,3,620,550,R,0,<rshift>,1,0,24143,324
Control_TS_26_A,0,practice,P,9,2,820,350,P,1,<rshift>,1,1,25483,544
Control_TS_26_A,0,practice,P,10,2,820,350,P,1,<rshift>,1,1,26143,532
Control_TS_26_A,1,test,P,1,4,820,550,P,1,NONE,0,0,35178,950
Control_TS_26_A,1,test,P,2,3,620,550,P,1,<rshift>,1,1,36177,362
Control_TS_26_A,1,test,P,3,4,820,550,R,0,<rshift>,1,0,37178,309
Control_TS_26_A,1,test,P,4,3,620,550,R,0,NONE,0,1,38177,950
Control_TS_26_A,1,test,P,5,4,820,550,P,1,<rshift>,1,1,39177,372
Control_TS_26_A,1,test,P,6,1,620,350,P,1,<rshift>,1,1,40177,338
Control_TS_26_A,1,test,P,7,2,820,350,P,1,<rshift>,1,1,41178,276
Control_TS_26_A,1,test,P,8,2,820,350,P,1,<rshift>,1,1,42177,458
Control_TS_26_A,1,test,P,9,1,620,350,R,0,<rshift>,1,0,43177,289
Control_TS_26_A,1,test,P,10,4,820,550,P,1,<rshift>,1,1,44177,301
Control_TS_26_A,1,test,P,11,1,620,350,P,1,<rshift>,1,1,45177,472
Control_TS_26_A,1,test,P,12,1,620,350,P,1,<rshift>,1,1,46177,369
Control_TS_26_A,1,test,P,13,2,820,350,P,1,<rshift>,1,1,47177,347
Control_TS_26_A,1,test,P,14,1,620,350,P,1,<rshift>,1,1,48177,382
Control_TS_26_A,1,test,P,15,2,820,350,P,1,<rshift>,1,1,49177,296
Control_TS_26_A,1,test,P,16,3,620,550,P,1,<rshift>,1,1,50177,463
Control_TS_26_A,1,test,P,17,2,820,350,P,1,<rshift>,1,1,51177,306
Control_TS_26_A,1,test,P,18,3,620,550,P,1,<rshift>,1,1,52177,313
Control_TS_26_A,1,test,P,19,3,620,550,P,1,<rshift>,1,1,53177,296
Control_TS_26_A,1,test,P,20,2,820,350,P,1,<rshift>,1,1,54177,286
Control_TS_26_A,1,test,P,21,1,620,350,P,1,<rshift>,1,1,55177,253
Control_TS_26_A,1,test,P,22,1,620,350,P,1,<rshift>,1,1,56177,259
Control_TS_26_A,1,test,P,23,3,620,550,R,0,<rshift>,1,0,57178,370
Control_TS_26_A,1,test,P,24,3,620,550,P,1,<rshift>,1,1,58178,370
Control_TS_26_A,1,test,P,25,2,820,350,P,1,<rshift>,1,1,59177,283
Control_TS_26_A,1,test,P,26,2,820,350,P,1,<rshift>,1,1,60177,338
Control_TS_26_A,1,test,P,27,1,620,350,P,1,<rshift>,1,1,61177,293
Control_TS_26_A,1,test,P,28,1,620,350,P,1,<rshift>,1,1,62178,308
Control_TS_26_A,1,test,P,29,2,820,350,P,1,<rshift>,1,1,63177,352
Control_TS_26_A,1,test,P,30,3,620,550,P,1,<rshift>,1,1,64177,349
Control_TS_26_A,1,test,P,31,2,820,350,P,1,<rshift>,1,1,65177,313
Control_TS_26_A,1,test,P,32,2,820,350,R,0,<rshift>,1,0,66177,342
Control_TS_26_A,1,test,P,33,1,620,350,R,0,<rshift>,1,0,67177,224
Control_TS_26_A,1,test,P,34,1,620,350,P,1,<rshift>,1,1,68178,397
Control_TS_26_A,1,test,P,35,3,620,550,P,1,<rshift>,1,1,69177,360
Control_TS_26_A,1,test,P,36,2,820,350,P,1,<rshift>,1,1,70177,339
Control_TS_26_A,1,test,P,37,2,820,350,P,1,<rshift>,1,1,71177,341
Control_TS_26_A,1,test,P,38,1,620,350,P,1,<rshift>,1,1,72177,317
Control_TS_26_A,1,test,P,39,1,620,350,P,1,<rshift>,1,1,73177,354
Control_TS_26_A,1,test,P,40,2,820,350,P,1,<rshift>,1,1,74178,275
Control_TS_26_A,1,test,P,41,2,820,350,P,1,<rshift>,1,1,75177,350
Control_TS_26_A,1,test,P,42,2,820,350,P,1,<rshift>,1,1,76177,347
Control_TS_26_A,1,test,P,43,4,820,550,R,0,NONE,0,1,77177,950
Control_TS_26_A,1,test,P,44,4,820,550,P,1,<rshift>,1,1,78178,505
Control_TS_26_A,1,test,P,45,2,820,350,P,1,<rshift>,1,1,79177,332
Control_TS_26_A,1,test,P,46,4,820,550,R,0,NONE,0,1,80178,950
Control_TS_26_A,1,test,P,47,3,620,550,R,0,<rshift>,1,0,81177,313
Control_TS_26_A,1,test,P,48,2,820,350,P,1,<rshift>,1,1,82178,453
Control_TS_26_A,1,test,P,49,3,620,550,P,1,<rshift>,1,1,83177,341
Control_TS_26_A,1,test,P,50,4,820,550,R,0,NONE,0,1,84177,951
Control_TS_26_A,1,test,P,51,2,820,350,P,1,<rshift>,1,1,85177,356
Control_TS_26_A,1,test,P,52,2,820,350,P,1,<rshift>,1,1,86177,354
Control_TS_26_A,1,test,P,53,3,620,550,P,1,<rshift>,1,1,87177,413
Control_TS_26_A,1,test,P,54,4,820,550,P,1,<rshift>,1,1,88177,406
Control_TS_26_A,1,test,P,55,4,820,550,P,1,<rshift>,1,1,89177,362
Control_TS_26_A,1,test,P,56,3,620,550,P,1,<rshift>,1,1,90178,373
Control_TS_26_A,1,test,P,57,2,820,350,P,1,<rshift>,1,1,91177,299
Control_TS_26_A,1,test,P,58,1,620,350,P,1,<rshift>,1,1,92177,269
Control_TS_26_A,1,test,P,59,1,620,350,P,1,<rshift>,1,1,93177,345
Control_TS_26_A,1,test,P,60,4,820,550,R,0,<rshift>,1,0,94177,347
Control_TS_26_A,1,test,P,61,3,620,550,P,1,<rshift>,1,1,95177,326
Control_TS_26_A,1,test,P,62,4,820,550,P,1,<rshift>,1,1,96177,441
Control_TS_26_A,1,test,P,63,4,820,550,P,1,<rshift>,1,1,97177,365
Control_TS_26_A,1,test,P,64,4,820,550,P,1,<rshift>,1,1,98177,356
Control_TS_26_A,1,test,P,65,3,620,550,P,1,<rshift>,1,1,99177,433
Control_TS_26_A,1,test,P,66,1,620,350,P,1,<rshift>,1,1,100177,297
Control_TS_26_A,1,test,P,67,1,620,350,P,1,<rshift>,1,1,101178,345
Control_TS_26_A,1,test,P,68,1,620,350,P,1,<rshift>,1,1,102177,300
Control_TS_26_A,1,test,P,69,2,820,350,R,0,<rshift>,1,0,103177,252
Control_TS_26_A,1,test,P,70,3,620,550,R,0,<rshift>,1,0,104178,267
Control_TS_26_A,1,test,P,71,4,820,550,P,1,<rshift>,1,1,105177,278
Control_TS_26_A,1,test,P,72,3,620,550,P,1,<rshift>,1,1,106177,439
Control_TS_26_A,1,test,P,73,3,620,550,R,0,<rshift>,1,0,107177,360
Control_TS_26_A,1,test,P,74,3,620,550,P,1,<rshift>,1,1,108177,379
Control_TS_26_A,1,test,P,75,1,620,350,P,1,NONE,0,0,109177,950
Control_TS_26_A,1,test,P,76,3,620,550,P,1,<rshift>,1,1,110177,377
Control_TS_26_A,1,test,P,77,4,820,550,P,1,NONE,0,0,111177,951
Control_TS_26_A,1,test,P,78,3,620,550,P,1,<rshift>,1,1,112177,324
Control_TS_26_A,1,test,P,79,1,620,350,P,1,<rshift>,1,1,113178,278
Control_TS_26_A,1,test,P,80,2,820,350,P,1,<rshift>,1,1,114178,427
Control_TS_26_A,1,test,P,81,1,620,350,P,1,<rshift>,1,1,115178,291
Control_TS_26_A,1,test,P,82,2,820,350,P,1,<rshift>,1,1,116177,469
Control_TS_26_A,1,test,P,83,1,620,350,P,1,<rshift>,1,1,117178,338
Control_TS_26_A,1,test,P,84,4,820,550,P,1,<rshift>,1,1,118177,323
Control_TS_26_A,1,test,P,85,4,820,550,R,0,<rshift>,1,0,119177,305
Control_TS_26_A,1,test,P,86,2,820,350,R,0,<rshift>,1,0,120179,296
Control_TS_26_A,1,test,P,87,2,820,350,P,1,<rshift>,1,1,121178,460
Control_TS_26_A,1,test,P,88,2,820,350,R,0,NONE,0,1,122179,950
Control_TS_26_A,1,test,P,89,4,820,550,P,1,<rshift>,1,1,123177,364
Control_TS_26_A,1,test,P,90,3,620,550,R,0,<rshift>,1,0,124177,318
Control_TS_26_A,1,test,P,91,2,820,350,P,1,<rshift>,1,1,125177,386
Control_TS_26_A,1,test,P,92,3,620,550,P,1,<rshift>,1,1,126177,505
Control_TS_26_A,1,test,P,93,4,820,550,R,0,<rshift>,1,0,127178,369
Control_TS_26_A,1,test,P,94,3,620,550,R,0,<rshift>,1,0,128177,353
Control_TS_26_A,1,test,P,95,2,820,350,P,1,<rshift>,1,1,129177,295
Control_TS_26_A,1,test,P,96,2,820,350,P,1,<rshift>,1,1,130177,360
Control_TS_26_A,1,test,P,97,2,820,350,P,1,<rshift>,1,1,131177,340
Control_TS_26_A,1,test,P,98,2,820,350,P,1,<rshift>,1,1,132177,324
Control_TS_26_A,1,test,P,99,1,620,350,P,1,<rshift>,1,1,133177,395
Control_TS_26_A,1,test,P,100,3,620,550,P,1,<rshift>,1,1,134177,420
Control_TS_26_A,1,test,P,101,1,620,350,P,1,<rshift>,1,1,135177,392
Control_TS_26_A,1,test,P,102,3,620,550,P,1,<rshift>,1,1,136177,407
Control_TS_26_A,1,test,P,103,2,820,350,P,1,<rshift>,1,1,137177,298
Control_TS_26_A,1,test,P,104,2,820,350,P,1,<rshift>,1,1,138177,344
Control_TS_26_A,1,test,P,105,1,620,350,P,1,<rshift>,1,1,139177,316
Control_TS_26_A,1,test,P,106,2,820,350,P,1,<rshift>,1,1,140177,379
Control_TS_26_A,1,test,P,107,3,620,550,P,1,<rshift>,1,1,141177,507
Control_TS_26_A,1,test,P,108,4,820,550,R,0,NONE,0,1,142178,950
Control_TS_26_A,1,test,P,109,4,820,550,R,0,<rshift>,1,0,143177,405
Control_TS_26_A,1,test,P,110,1,620,350,P,1,<rshift>,1,1,144178,374
Control_TS_26_A,1,test,P,111,2,820,350,P,1,<rshift>,1,1,145177,311
Control_TS_26_A,1,test,P,112,4,820,550,P,1,<rshift>,1,1,146177,471
Control_TS_26_A,1,test,P,113,1,620,350,P,1,<rshift>,1,1,147177,390
Control_TS_26_A,1,test,P,114,4,820,550,P,1,<rshift>,1,1,148178,378
Control_TS_26_A,1,test,P,115,2,820,350,R,0,<rshift>,1,0,149177,318
Control_TS_26_A,1,test,P,116,4,820,550,R,0,NONE,0,1,150177,950
Control_TS_26_A,1,test,P,117,4,820,550,P,1,<rshift>,1,1,151177,369
Control_TS_26_A,1,test,P,118,2,820,350,P,1,<rshift>,1,1,152177,368
Control_TS_26_A,1,test,P,119,4,820,550,R,0,NONE,0,1,153177,950
Control_TS_26_A,1,test,P,120,3,620,550,P,1,<rshift>,1,1,154177,361
Control_TS_26_A,1,test,P,121,2,820,350,R,0,NONE,0,1,155177,950
Control_TS_26_A,1,test,P,122,3,620,550,P,1,<rshift>,1,1,156178,345
Control_TS_26_A,1,test,P,123,1,620,350,R,0,NONE,0,1,157178,950
Control_TS_26_A,1,test,P,124,2,820,350,R,0,NONE,0,1,158177,950
Control_TS_26_A,1,test,P,125,1,620,350,P,1,<rshift>,1,1,159177,380
Control_TS_26_A,1,test,P,126,2,820,350,R,0,NONE,0,1,160177,950
Control_TS_26_A,1,test,P,127,1,620,350,P,1,<rshift>,1,1,161178,507
Control_TS_26_A,1,test,P,128,4,820,550,P,1,<rshift>,1,1,162177,382
Control_TS_26_A,1,test,P,129,3,620,550,R,0,<rshift>,1,0,163178,309
Control_TS_26_A,1,test,P,130,3,620,550,P,1,<rshift>,1,1,164176,568
Control_TS_26_A,1,test,P,131,4,820,550,P,1,<rshift>,1,1,165177,434
Control_TS_26_A,1,test,P,132,3,620,550,P,1,<rshift>,1,1,166177,430
Control_TS_26_A,1,test,P,133,1,620,350,P,1,<rshift>,1,1,167177,341
Control_TS_26_A,1,test,P,134,4,820,550,P,1,<rshift>,1,1,168177,345
Control_TS_26_A,1,test,P,135,2,820,350,P,1,<rshift>,1,1,169177,329
Control_TS_26_A,1,test,P,136,3,620,550,R,0,<rshift>,1,0,170177,343
Control_TS_26_A,1,test,P,137,1,620,350,P,1,<rshift>,1,1,171177,291
Control_TS_26_A,1,test,P,138,4,820,550,P,1,<rshift>,1,1,172177,338
Control_TS_26_A,1,test,P,139,3,620,550,P,1,<rshift>,1,1,173177,515
Control_TS_26_A,1,test,P,140,4,820,550,P,1,<rshift>,1,1,174177,422
Control_TS_26_A,1,test,P,141,4,820,550,P,1,<rshift>,1,1,175177,411
Control_TS_26_A,1,test,P,142,2,820,350,P,1,<rshift>,1,1,176177,442
Control_TS_26_A,1,test,P,143,4,820,550,P,1,<rshift>,1,1,177177,456
Control_TS_26_A,1,test,P,144,4,820,550,P,1,<rshift>,1,1,178178,366
Control_TS_26_A,1,test,P,145,2,820,350,P,1,<rshift>,1,1,179177,374
Control_TS_26_A,1,test,P,146,4,820,550,P,1,<rshift>,1,1,180178,350
Control_TS_26_A,1,test,P,147,1,620,350,P,1,<rshift>,1,1,181177,336
Control_TS_26_A,1,test,P,148,2,820,350,P,1,<rshift>,1,1,182177,320
Control_TS_26_A,1,test,P,149,1,620,350,P,1,<rshift>,1,1,183177,509
Control_TS_26_A,1,test,P,150,2,820,350,R,0,NONE,0,1,184177,950
Control_TS_26_A,1,test,P,151,2,820,350,P,1,<rshift>,1,1,185177,383
Control_TS_26_A,1,test,P,152,4,820,550,P,1,<rshift>,1,1,186177,391
Control_TS_26_A,1,test,P,153,2,820,350,R,0,<rshift>,1,0,187177,375
Control_TS_26_A,1,test,P,154,4,820,550,P,1,<rshift>,1,1,188177,327
Control_TS_26_A,1,test,P,155,2,820,350,R,0,NONE,0,1,189177,950
Control_TS_26_A,1,test,P,156,4,820,550,R,0,NONE,0,1,190177,950
Control_TS_26_A,1,test,P,157,3,620,550,P,1,<rshift>,1,1,191177,361
Control_TS_26_A,1,test,P,158,1,620,350,P,1,<rshift>,1,1,192177,321
Control_TS_26_A,1,test,P,159,1,620,350,P,1,<rshift>,1,1,193177,368
Control_TS_26_A,1,test,P,160,1,620,350,P,1,<rshift>,1,1,194177,309
Control_TS_26_A,1,test,P,161,1,620,350,P,1,<rshift>,1,1,195177,302
Control_TS_26_A,1,test,P,162,3,620,550,P,1,<rshift>,1,1,196177,414
Control_TS_26_A,1,test,P,163,3,620,550,R,0,<rshift>,1,0,197177,363
Control_TS_26_A,1,test,P,164,4,820,550,P,1,NONE,0,0,198177,950
Control_TS_26_A,1,test,P,165,3,620,550,P,1,<rshift>,1,1,199177,406
Control_TS_26_A,1,test,P,166,3,620,550,P,1,<rshift>,1,1,200177,369
Control_TS_26_A,1,test,P,167,3,620,550,P,1,<rshift>,1,1,201178,316
Control_TS_26_A,1,test,P,168,1,620,350,P,1,<rshift>,1,1,202178,325
Control_TS_26_A,1,test,P,169,3,620,550,P,1,<rshift>,1,1,203178,430
Control_TS_26_A,1,test,P,170,4,820,550,P,1,<rshift>,1,1,204177,340
Control_TS_26_A,1,test,P,171,1,620,350,P,1,<rshift>,1,1,205177,379
Control_TS_26_A,1,test,P,172,2,820,350,P,1,<rshift>,1,1,206177,352
Control_TS_26_A,1,test,P,173,3,620,550,P,1,<rshift>,1,1,207177,312
Control_TS_26_A,1,test,P,174,2,820,350,R,0,<rshift>,1,0,208178,341
Control_TS_26_A,1,test,P,175,4,820,550,R,0,<rshift>,1,0,209177,331
Control_TS_26_A,1,test,P,176,2,820,350,P,1,<rshift>,1,1,210177,365
Control_TS_26_A,1,test,P,177,4,820,550,P,1,<rshift>,1,1,211177,461
Control_TS_26_A,1,test,P,178,2,820,350,P,1,<rshift>,1,1,212177,376
Control_TS_26_A,1,test,P,179,4,820,550,P,1,<rshift>,1,1,213177,346
Control_TS_26_A,1,test,P,180,4,820,550,P,1,<rshift>,1,1,214177,373
Control_TS_26_A,1,test,P,181,3,620,550,P,1,<rshift>,1,1,215177,388
Control_TS_26_A,1,test,P,182,4,820,550,P,1,<rshift>,1,1,216177,369
Control_TS_26_A,1,test,P,183,2,820,350,P,1,<rshift>,1,1,217177,335
Control_TS_26_A,1,test,P,184,1,620,350,P,1,<rshift>,1,1,218177,291
Control_TS_26_A,1,test,P,185,2,820,350,P,1,<rshift>,1,1,219177,313
Control_TS_26_A,1,test,P,186,2,820,350,P,1,<rshift>,1,1,220177,379
Control_TS_26_A,1,test,P,187,1,620,350,P,1,<rshift>,1,1,221177,367
Control_TS_26_A,1,test,P,188,2,820,350,P,1,<rshift>,1,1,222177,317
Control_TS_26_A,1,test,P,189,4,820,550,P,1,<rshift>,1,1,223177,454
Control_TS_26_A,1,test,P,190,2,820,350,P,1,<rshift>,1,1,224177,349
Control_TS_26_A,1,test,P,191,2,820,350,P,1,<rshift>,1,1,225177,362
Control_TS_26_A,1,test,P,192,2,820,350,P,1,<rshift>,1,1,226177,287
Control_TS_26_A,1,test,P,193,3,620,550,R,0,<rshift>,1,0,227178,395
Control_TS_26_A,1,test,P,194,4,820,550,R,0,<rshift>,1,0,228177,343
Control_TS_26_A,1,test,P,195,2,820,350,P,1,<rshift>,1,1,229177,280
Control_TS_26_A,1,test,P,196,2,820,350,P,1,<rshift>,1,1,230177,340
Control_TS_26_A,1,test,P,197,4,820,550,P,1,<rshift>,1,1,231178,482
Control_TS_26_A,1,test,P,198,1,620,350,P,1,<rshift>,1,1,232177,362
Control_TS_26_A,1,test,P,199,3,620,550,P,1,<rshift>,1,1,233177,508
Control_TS_26_A,1,test,P,200,4,820,550,P,1,<rshift>,1,1,234177,421
Control_TS_26_A,1,test,P,201,4,820,550,R,0,<rshift>,1,0,235177,364
Control_TS_26_A,1,test,P,202,1,620,350,P,1,<rshift>,1,1,236177,329
Control_TS_26_A,1,test,P,203,1,620,350,P,1,<rshift>,1,1,237177,358
Control_TS_26_A,1,test,P,204,2,820,350,P,1,<rshift>,1,1,238177,361
Control_TS_26_A,1,test,P,205,4,820,550,P,1,<rshift>,1,1,239177,410
Control_TS_26_A,1,test,P,206,4,820,550,P,1,<rshift>,1,1,240177,379
Control_TS_26_A,1,test,P,207,3,620,550,P,1,<rshift>,1,1,241177,409
Control_TS_26_A,1,test,P,208,2,820,350,P,1,<rshift>,1,1,242178,355
Control_TS_26_A,1,test,P,209,2,820,350,R,0,<rshift>,1,0,243178,363
Control_TS_26_A,1,test,P,210,3,620,550,P,1,<rshift>,1,1,244178,348
Control_TS_26_A,1,test,P,211,2,820,350,P,1,<rshift>,1,1,245177,399
Control_TS_26_A,1,test,P,212,1,620,350,P,1,<rshift>,1,1,246177,375
Control_TS_26_A,1,test,P,213,1,620,350,R,0,NONE,0,1,247177,950
Control_TS_26_A,1,test,P,214,2,820,350,P,1,<rshift>,1,1,248177,353
Control_TS_26_A,1,test,P,215,3,620,550,R,0,<rshift>,1,0,249177,332
Control_TS_26_A,1,test,P,216,2,820,350,P,1,<rshift>,1,1,250177,326
Control_TS_26_A,1,test,P,217,1,620,350,P,1,<rshift>,1,1,251177,348
Control_TS_26_A,1,test,P,218,1,620,350,P,1,<rshift>,1,1,252177,387
Control_TS_26_A,1,test,P,219,1,620,350,P,1,<rshift>,1,1,253177,349
Control_TS_26_A,1,test,P,220,2,820,350,P,1,<rshift>,1,1,254177,445
Control_TS_26_A,1,test,P,221,4,820,550,R,0,NONE,0,1,255177,951
Control_TS_26_A,1,test,P,222,3,620,550,P,1,<rshift>,1,1,256177,477
Control_TS_26_A,1,test,P,223,3,620,550,P,1,<rshift>,1,1,257178,440
Control_TS_26_A,1,test,P,224,4,820,550,P,1,<rshift>,1,1,258177,424
Control_TS_26_A,1,test,P,225,4,820,550,P,1,<rshift>,1,1,259177,375
Control_TS_26_A,1,test,P,226,2,820,350,R,0,NONE,0,1,260177,950
Control_TS_26_A,1,test,P,227,2,820,350,P,1,<rshift>,1,1,261178,391
Control_TS_26_A,1,test,P,228,3,620,550,P,1,<rshift>,1,1,262177,416
Control_TS_26_A,1,test,P,229,3,620,550,P,1,<rshift>,1,1,263178,451
Control_TS_26_A,1,test,P,230,4,820,550,P,1,<rshift>,1,1,264177,380
Control_TS_26_A,1,test,P,231,3,620,550,R,0,<rshift>,1,0,265177,357
Control_TS_26_A,1,test,P,232,2,820,350,P,1,<rshift>,1,1,266178,280
Control_TS_26_A,1,test,P,233,2,820,350,R,0,NONE,0,1,267177,950
Control_TS_26_A,1,test,P,234,1,620,350,P,1,<rshift>,1,1,268177,357
Control_TS_26_A,1,test,P,235,2,820,350,P,1,<rshift>,1,1,269177,510
Control_TS_26_A,1,test,P,236,1,620,350,R,0,NONE,0,1,270177,950
Control_TS_26_A,1,test,P,237,4,820,550,P,1,<rshift>,1,1,271177,377
Control_TS_26_A,1,test,P,238,1,620,350,P,1,<rshift>,1,1,272178,391
Control_TS_26_A,1,test,P,239,2,820,350,R,0,NONE,0,1,273177,950
Control_TS_26_A,1,test,P,240,2,820,350,P,1,<rshift>,1,1,274177,396
Control_TS_26_A,1,test,P,241,2,820,350,P,1,<rshift>,1,1,275177,505
Control_TS_26_A,1,test,P,242,3,620,550,P,1,<rshift>,1,1,276177,437
Control_TS_26_A,1,test,P,243,3,620,550,P,1,<rshift>,1,1,277177,391
Control_TS_26_A,1,test,P,244,3,620,550,P,1,<rshift>,1,1,278177,394
Control_TS_26_A,1,test,P,245,3,620,550,R,0,<rshift>,1,0,279177,398
Control_TS_26_A,1,test,P,246,3,620,550,P,1,<rshift>,1,1,280177,420
Control_TS_26_A,1,test,P,247,1,620,350,R,0,NONE,0,1,281177,950
Control_TS_26_A,1,test,P,248,3,620,550,P,1,<rshift>,1,1,282177,463
Control_TS_26_A,1,test,P,249,3,620,550,P,1,<rshift>,1,1,283178,507
Control_TS_26_A,1,test,P,250,1,620,350,P,1,<rshift>,1,1,284178,519
Control_TS_26_A,1,test,P,251,3,620,550,P,1,<rshift>,1,1,285178,464
Control_TS_26_A,1,test,P,252,4,820,550,P,1,<rshift>,1,1,286178,450
Control_TS_26_A,1,test,P,253,1,620,350,R,0,NONE,0,1,287177,950
Control_TS_26_A,1,test,P,254,4,820,550,P,1,<rshift>,1,1,288178,409
Control_TS_26_A,1,test,P,255,1,620,350,P,1,<rshift>,1,1,289177,420
Control_TS_26_A,1,test,P,256,2,820,350,P,1,<rshift>,1,1,290177,311
Control_TS_26_A,1,test,P,257,3,620,550,R,0,<rshift>,1,0,291178,389
Control_TS_26_A,1,test,P,258,4,820,550,P,1,<rshift>,1,1,292177,352
Control_TS_26_A,1,test,P,259,4,820,550,P,1,<rshift>,1,1,293178,367
Control_TS_26_A,1,test,P,260,2,820,350,P,1,<rshift>,1,1,294177,374
Control_TS_26_A,1,test,P,261,3,620,550,P,1,<rshift>,1,1,295177,432
Control_TS_26_A,1,test,P,262,1,620,350,P,1,<rshift>,1,1,296177,418
Control_TS_26_A,1,test,P,263,1,620,350,P,1,<rshift>,1,1,297177,413
Control_TS_26_A,1,test,P,264,2,820,350,P,1,<rshift>,1,1,298177,308
Control_TS_26_A,1,test,P,265,1,620,350,R,0,<rshift>,1,0,299177,312
Control_TS_26_A,1,test,P,266,4,820,550,P,1,<rshift>,1,1,300177,475
Control_TS_26_A,1,test,P,267,4,820,550,R,0,<rshift>,1,0,301177,54
Control_TS_26_A,1,test,P,268,2,820,350,P,1,NONE,0,0,302177,950
Control_TS_26_A,1,test,P,269,3,620,550,P,1,<rshift>,1,1,303177,415
Control_TS_26_A,1,test,P,270,1,620,350,P,1,<rshift>,1,1,304178,354
Control_TS_26_A,1,test,P,271,2,820,350,P,1,<rshift>,1,1,305178,424
Control_TS_26_A,1,test,P,272,4,820,550,P,1,<rshift>,1,1,306178,411
Control_TS_26_A,1,test,P,273,3,620,550,P,1,<rshift>,1,1,307177,439
Control_TS_26_A,1,test,P,274,3,620,550,P,1,<rshift>,1,1,308178,418
Control_TS_26_A,1,test,P,275,1,620,350,P,1,<rshift>,1,1,309177,393
Control_TS_26_A,1,test,P,276,1,620,350,P,1,<rshift>,1,1,310177,499
Control_TS_26_A,1,test,P,277,1,620,350,R,0,NONE,0,1,311177,950
Control_TS_26_A,1,test,P,278,3,620,550,P,1,<rshift>,1,1,312177,430
Control_TS_26_A,1,test,P,279,2,820,350,P,1,<rshift>,1,1,313177,436
Control_TS_26_A,1,test,P,280,2,820,350,P,1,<rshift>,1,1,314178,370
Control_TS_26_A,1,test,P,281,1,620,350,P,1,<rshift>,1,1,315177,308
Control_TS_26_A,1,test,P,282,3,620,550,R,0,NONE,0,1,316177,950
Control_TS_26_A,1,test,P,283,1,620,350,P,1,<rshift>,1,1,317177,307
Control_TS_26_A,1,test,P,284,3,620,550,P,1,<rshift>,1,1,318177,571
Control_TS_26_A,1,test,P,285,2,820,350,P,1,<rshift>,1,1,319177,306
Control_TS_26_A,1,test,P,286,3,620,550,P,1,<rshift>,1,1,320177,354
Control_TS_26_A,1,test,P,287,2,820,350,P,1,<rshift>,1,1,321177,322
Control_TS_26_A,1,test,P,288,2,820,350,P,1,<rshift>,1,1,322177,365
Control_TS_26_A,1,test,P,289,2,820,350,P,1,<rshift>,1,1,323178,352
Control_TS_26_A,1,test,P,290,2,820,350,R,0,NONE,0,1,324177,950
Control_TS_26_A,1,test,P,291,1,620,350,P,1,<rshift>,1,1,325177,321
Control_TS_26_A,1,test,P,292,4,820,550,P,1,<rshift>,1,1,326177,400
Control_TS_26_A,1,test,P,293,2,820,350,P,1,<rshift>,1,1,327177,333
Control_TS_26_A,1,test,P,294,4,820,550,P,1,<rshift>,1,1,328177,394
Control_TS_26_A,1,test,P,295,4,820,550,P,1,<rshift>,1,1,329177,389
Control_TS_26_A,1,test,P,296,4,820,550,P,1,<rshift>,1,1,330177,366
Control_TS_26_A,1,test,P,297,2,820,350,P,1,<rshift>,1,1,331177,317
Control_TS_26_A,1,test,P,298,1,620,350,P,1,<rshift>,1,1,332177,291
Control_TS_26_A,1,test,P,299,3,620,550,P,1,<rshift>,1,1,333177,397
Control_TS_26_A,1,test,P,300,3,620,550,R,0,<rshift>,1,0,334177,401
Control_TS_26_A,2,practice,R,1,3,620,550,R,1,NONE,0,0,350906,950
Control_TS_26_A,2,practice,R,2,4,820,550,R,1,<rshift>,1,1,352868,484
Control_TS_26_A,2,practice,R,3,2,820,350,P,0,NONE,0,1,353360,950
Control_TS_26_A,2,practice,R,4,4,820,550,R,1,<rshift>,1,1,354315,352
Control_TS_26_A,2,practice,R,5,2,820,350,R,1,<rshift>,1,1,354906,504
Control_TS_26_A,2,practice,R,6,4,820,550,R,1,<rshift>,1,1,355907,346
Control_TS_26_A,2,practice,R,7,4,820,550,R,1,<rshift>,1,1,356906,380
Control_TS_26_A,2,practice,R,8,1,620,350,R,1,<rshift>,1,1,357906,406
Control_TS_26_A,2,practice,R,9,1,620,350,R,1,<rshift>,1,1,358906,333
Control_TS_26_A,2,practice,R,10,4,820,550,P,0,<rshift>,1,0,359906,340
Control_TS_26_A,3,test,R,1,4,820,550,P,0,<rshift>,1,0,363675,554
Control_TS_26_A,3,test,R,2,2,820,350,R,1,<rshift>,1,1,364675,368
Control_TS_26_A,3,test,R,3,3,620,550,R,1,<rshift>,1,1,365675,377
Control_TS_26_A,3,test,R,4,1,620,350,P,0,<rshift>,1,0,366675,319
Control_TS_26_A,3,test,R,5,2,820,350,R,1,<rshift>,1,1,367675,306
Control_TS_26_A,3,test,R,6,1,620,350,R,1,NONE,0,0,368675,951
Control_TS_26_A,3,test,R,7,2,820,350,R,1,<rshift>,1,1,369675,319
Control_TS_26_A,3,test,R,8,3,620,550,P,0,<rshift>,1,0,370675,366
Control_TS_26_A,3,test,R,9,2,820,350,R,1,<rshift>,1,1,371676,368
Control_TS_26_A,3,test,R,10,3,620,550,R,1,<rshift>,1,1,372675,481
Control_TS_26_A,3,test,R,11,4,820,550,R,1,<rshift>,1,1,373675,453
Control_TS_26_A,3,test,R,12,2,820,350,R,1,<rshift>,1,1,374675,415
Control_TS_26_A,3,test,R,13,2,820,350,R,1,<rshift>,1,1,375675,398
Control_TS_26_A,3,test,R,14,4,820,550,R,1,<rshift>,1,1,376675,404
Control_TS_26_A,3,test,R,15,3,620,550,R,1,<rshift>,1,1,377675,324
Control_TS_26_A,3,test,R,16,1,620,350,R,1,<rshift>,1,1,378676,486
Control_TS_26_A,3,test,R,17,3,620,550,R,1,<rshift>,1,1,379675,381
Control_TS_26_A,3,test,R,18,2,820,350,R,1,<rshift>,1,1,380675,324
Control_TS_26_A,3,test,R,19,1,620,350,R,1,<rshift>,1,1,381675,352
Control_TS_26_A,3,test,R,20,4,820,550,P,0,<rshift>,1,0,382676,337
Control_TS_26_A,3,test,R,21,1,620,350,R,1,<rshift>,1,1,383675,332
Control_TS_26_A,3,test,R,22,1,620,350,R,1,NONE,0,0,384675,950
Control_TS_26_A,3,test,R,23,3,620,550,R,1,NONE,0,0,385675,950
Control_TS_26_A,3,test,R,24,3,620,550,P,0,<rshift>,1,0,386676,392
Control_TS_26_A,3,test,R,25,4,820,550,R,1,<rshift>,1,1,387675,475
Control_TS_26_A,3,test,R,26,3,620,550,P,0,<rshift>,1,0,388675,378
Control_TS_26_A,3,test,R,27,2,820,350,R,1,<rshift>,1,1,389675,369
Control_TS_26_A,3,test,R,28,2,820,350,R,1,<rshift>,1,1,390675,370
Control_TS_26_A,3,test,R,29,3,620,550,R,1,<rshift>,1,1,391675,559
Control_TS_26_A,3,test,R,30,1,620,350,R,1,<rshift>,1,1,392675,366
Control_TS_26_A,3,test,R,31,3,620,550,R,1,<rshift>,1,1,393675,357
Control_TS_26_A,3,test,R,32,3,620,550,R,1,<rshift>,1,1,394676,392
Control_TS_26_A,3,test,R,33,1,620,350,R,1,<rshift>,1,1,395675,335
Control_TS_26_A,3,test,R,34,4,820,550,R,1,<rshift>,1,1,396675,403
Control_TS_26_A,3,test,R,35,1,620,350,R,1,<rshift>,1,1,397676,373
Control_TS_26_A,3,test,R,36,2,820,350,P,0,NONE,0,1,398675,950
Control_TS_26_A,3,test,R,37,4,820,550,R,1,<rshift>,1,1,399675,429
Control_TS_26_A,3,test,R,38,1,620,350,R,1,<rshift>,1,1,400675,328
Control_TS_26_A,3,test,R,39,2,820,350,R,1,<rshift>,1,1,401676,329
Control_TS_26_A,3,test,R,40,2,820,350,P,0,<rshift>,1,0,402675,362
Control_TS_26_A,3,test,R,41,1,620,350,R,1,<rshift>,1,1,403675,506
Control_TS_26_A,3,test,R,42,3,620,550,R,1,<rshift>,1,1,404675,343
Control_TS_26_A,3,test,R,43,1,620,350,R,1,<rshift>,1,1,405675,368
Control_TS_26_A,3,test,R,44,3,620,550,R,1,<rshift>,1,1,406675,374
Control_TS_26_A,3,test,R,45,4,820,550,R,1,<rshift>,1,1,407675,387
Control_TS_26_A,3,test,R,46,2,820,350,R,1,<rshift>,1,1,408675,365
Control_TS_26_A,3,test,R,47,3,620,550,R,1,<rshift>,1,1,409675,477
Control_TS_26_A,3,test,R,48,1,620,350,R,1,<rshift>,1,1,410675,333
Control_TS_26_A,3,test,R,49,4,820,550,R,1,<rshift>,1,1,411675,330
Control_TS_26_A,3,test,R,50,3,620,550,R,1,<rshift>,1,1,412676,397
Control_TS_26_A,3,test,R,51,2,820,350,R,1,<rshift>,1,1,413675,333
Control_TS_26_A,3,test,R,52,3,620,550,P,0,<rshift>,1,0,414675,423
Control_TS_26_A,3,test,R,53,2,820,350,R,1,<rshift>,1,1,415675,322
Control_TS_26_A,3,test,R,54,3,620,550,R,1,<rshift>,1,1,416675,450
Control_TS_26_A,3,test,R,55,3,620,550,R,1,<rshift>,1,1,417675,401
Control_TS_26_A,3,test,R,56,1,620,350,R,1,<rshift>,1,1,418676,342
Control_TS_26_A,3,test,R,57,3,620,550,R,1,<rshift>,1,1,419675,372
Control_TS_26_A,3,test,R,58,4,820,550,R,1,<rshift>,1,1,420675,338
Control_TS_26_A,3,test,R,59,4,820,550,R,1,<rshift>,1,1,421675,360
Control_TS_26_A,3,test,R,60,3,620,550,R,1,<rshift>,1,1,422675,464
Control_TS_26_A,3,test,R,61,3,620,550,R,1,<rshift>,1,1,423675,518
Control_TS_26_A,3,test,R,62,1,620,350,R,1,<rshift>,1,1,424675,461
Control_TS_26_A,3,test,R,63,2,820,350,R,1,<rshift>,1,1,425675,349
Control_TS_26_A,3,test,R,64,2,820,350,R,1,<rshift>,1,1,426675,431
Control_TS_26_A,3,test,R,65,4,820,550,R,1,<rshift>,1,1,427675,450
Control_TS_26_A,3,test,R,66,3,620,550,R,1,<rshift>,1,1,428675,465
Control_TS_26_A,3,test,R,67,2,820,350,R,1,<rshift>,1,1,429675,437
Control_TS_26_A,3,test,R,68,4,820,550,P,0,NONE,0,1,430675,950
Control_TS_26_A,3,test,R,69,2,820,350,P,0,NONE,0,1,431676,950
Control_TS_26_A,3,test,R,70,4,820,550,P,0,<rshift>,1,0,432676,390
Control_TS_26_A,3,test,R,71,2,820,350,R,1,<rshift>,1,1,433676,370
Control_TS_26_A,3,test,R,72,3,620,550,R,1,<rshift>,1,1,434675,405
Control_TS_26_A,3,test,R,73,1,620,350,R,1,<rshift>,1,1,435676,334
Control_TS_26_A,3,test,R,74,3,620,550,R,1,<rshift>,1,1,436675,428
Control_TS_26_A,3,test,R,75,3,620,550,P,0,NONE,0,1,437675,950
Control_TS_26_A,3,test,R,76,2,820,350,P,0,<rshift>,1,0,438675,263
Control_TS_26_A,3,test,R,77,3,620,550,P,0,NONE,0,1,439675,950
Control_TS_26_A,3,test,R,78,4,820,550,P,0,NONE,0,1,440675,950
Control_TS_26_A,3,test,R,79,2,820,350,R,1,<rshift>,1,1,441675,387
Control_TS_26_A,3,test,R,80,4,820,550,R,1,<rshift>,1,1,442675,380
Control_TS_26_A,3,test,R,81,1,620,350,R,1,<rshift>,1,1,443675,373
Control_TS_26_A,3,test,R,82,2,820,350,R,1,<rshift>,1,1,444675,340
Control_TS_26_A,3,test,R,83,4,820,550,R,1,<rshift>,1,1,445675,343
Control_TS_26_A,3,test,R,84,1,620,350,R,1,<rshift>,1,1,446675,333
Control_TS_26_A,3,test,R,85,1,620,350,R,1,<rshift>,1,1,447677,726
Control_TS_26_A,3,test,R,86,4,820,550,R,1,<rshift>,1,1,448675,295
Control_TS_26_A,3,test,R,87,2,820,350,R,1,<rshift>,1,1,449675,286
Control_TS_26_A,3,test,R,88,4,820,550,R,1,<rshift>,1,1,450675,271
Control_TS_26_A,3,test,R,89,4,820,550,R,1,<rshift>,1,1,451676,359
Control_TS_26_A,3,test,R,90,3,620,550,R,1,<rshift>,1,1,452675,393
Control_TS_26_A,3,test,R,91,4,820,550,P,0,<rshift>,1,0,453675,359
Control_TS_26_A,3,test,R,92,2,820,350,P,0,<rshift>,1,0,454675,272
Control_TS_26_A,3,test,R,93,4,820,550,R,1,<rshift>,1,1,455675,360
Control_TS_26_A,3,test,R,94,4,820,550,P,0,<rshift>,1,0,456675,380
Control_TS_26_A,3,test,R,95,3,620,550,R,1,<rshift>,1,1,457675,350
Control_TS_26_A,3,test,R,96,1,620,350,R,1,<rshift>,1,1,458675,325
Control_TS_26_A,3,test,R,97,1,620,350,R,1,<rshift>,1,1,459676,371
Control_TS_26_A,3,test,R,98,4,820,550,R,1,<rshift>,1,1,460675,430
Control_TS_26_A,3,test,R,99,3,620,550,R,1,<rshift>,1,1,461675,369
Control_TS_26_A,3,test,R,100,2,820,350,R,1,<rshift>,1,1,462675,287
Control_TS_26_A,3,test,R,101,2,820,350,R,1,<rshift>,1,1,463675,332
Control_TS_26_A,3,test,R,102,3,620,550,R,1,<rshift>,1,1,464675,438
Control_TS_26_A,3,test,R,103,2,820,350,R,1,<rshift>,1,1,465676,339
Control_TS_26_A,3,test,R,104,3,620,550,R,1,<rshift>,1,1,466675,359
Control_TS_26_A,3,test,R,105,4,820,550,R,1,<rshift>,1,1,467675,309
Control_TS_26_A,3,test,R,106,2,820,350,R,1,<rshift>,1,1,468675,350
Control_TS_26_A,3,test,R,107,1,620,350,P,0,<rshift>,1,0,469675,290
Control_TS_26_A,3,test,R,108,4,820,550,R,1,<rshift>,1,1,470675,297
Control_TS_26_A,3,test,R,109,3,620,550,R,1,<rshift>,1,1,471675,354
Control_TS_26_A,3,test,R,110,3,620,550,P,0,<rshift>,1,0,472675,484
Control_TS_26_A,3,test,R,111,3,620,550,P,0,NONE,0,1,473675,950
Control_TS_26_A,3,test,R,112,2,820,350,R,1,<rshift>,1,1,474675,327
Control_TS_26_A,3,test,R,113,2,820,350,R,1,<rshift>,1,1,475675,369
Control_TS_26_A,3,test,R,114,3,620,550,R,1,<rshift>,1,1,476676,552
Control_TS_26_A,3,test,R,115,3,620,550,R,1,<rshift>,1,1,477675,391
Control_TS_26_A,3,test,R,116,4,820,550,R,1,<rshift>,1,1,478675,365
Control_TS_26_A,3,test,R,117,2,820,350,R,1,<rshift>,1,1,479675,309
Control_TS_26_A,3,test,R,118,1,620,350,P,0,<rshift>,1,0,480676,314
Control_TS_26_A,3,test,R,119,1,620,350,R,1,<rshift>,1,1,481675,436
Control_TS_26_A,3,test,R,120,4,820,550,P,0,NONE,0,1,482676,950
Control_TS_26_A,3,test,R,121,4,820,550,R,1,<rshift>,1,1,483675,505
Control_TS_26_A,3,test,R,122,2,820,350,R,1,<rshift>,1,1,484675,374
Control_TS_26_A,3,test,R,123,2,820,350,R,1,<rshift>,1,1,485675,388
Control_TS_26_A,3,test,R,124,2,820,350,R,1,<rshift>,1,1,486675,428
Control_TS_26_A,3,test,R,125,3,620,550,R,1,<rshift>,1,1,487675,428
Control_TS_26_A,3,test,R,126,4,820,550,R,1,<rshift>,1,1,488675,350
Control_TS_26_A,3,test,R,127,3,620,550,R,1,<rshift>,1,1,489675,339
Control_TS_26_A,3,test,R,128,2,820,350,R,1,<rshift>,1,1,490675,305
Control_TS_26_A,3,test,R,129,4,820,550,R,1,<rshift>,1,1,491675,398
Control_TS_26_A,3,test,R,130,2,820,350,R,1,<rshift>,1,1,492675,414
Control_TS_26_A,3,test,R,131,2,820,350,P,0,NONE,0,1,493676,950
Control_TS_26_A,3,test,R,132,2,820,350,P,0,NONE,0,1,494675,951
Control_TS_26_A,3,test,R,133,2,820,350,R,1,<rshift>,1,1,495676,404
Control_TS_26_A,3,test,R,134,1,620,350,R,1,<rshift>,1,1,496675,341
Control_TS_26_A,3,test,R,135,2,820,350,P,0,<rshift>,1,0,497675,326
Control_TS_26_A,3,test,R,136,1,620,350,R,1,<rshift>,1,1,498675,475
Control_TS_26_A,3,test,R,137,4,820,550,R,1,<rshift>,1,1,499675,423
Control_TS_26_A,3,test,R,138,1,620,350,R,1,<rshift>,1,1,500675,341
Control_TS_26_A,3,test,R,139,3,620,550,R,1,<rshift>,1,1,501675,358
Control_TS_26_A,3,test,R,140,4,820,550,R,1,<rshift>,1,1,502676,365
Control_TS_26_A,3,test,R,141,2,820,350,P,0,NONE,0,1,503675,950
Control_TS_26_A,3,test,R,142,4,820,550,R,1,<rshift>,1,1,504675,407
Control_TS_26_A,3,test,R,143,2,820,350,R,1,<rshift>,1,1,505676,365
Control_TS_26_A,3,test,R,144,1,620,350,R,1,<rshift>,1,1,506675,324
Control_TS_26_A,3,test,R,145,3,620,550,R,1,<rshift>,1,1,507676,368
Control_TS_26_A,3,test,R,146,3,620,550,P,0,NONE,0,1,508675,950
Control_TS_26_A,3,test,R,147,4,820,550,P,0,<rshift>,1,0,509675,337
Control_TS_26_A,3,test,R,148,4,820,550,P,0,<rshift>,1,0,510675,406
Control_TS_26_A,3,test,R,149,4,820,550,R,1,<rshift>,1,1,511675,382
Control_TS_26_A,3,test,R,150,2,820,350,R,1,<rshift>,1,1,512675,332
Control_TS_26_A,3,test,R,151,3,620,550,R,1,<rshift>,1,1,513675,483
Control_TS_26_A,3,test,R,152,2,820,350,R,1,<rshift>,1,1,514675,377
Control_TS_26_A,3,test,R,153,3,620,550,R,1,<rshift>,1,1,515675,325
Control_TS_26_A,3,test,R,154,2,820,350,R,1,<rshift>,1,1,516675,359
Control_TS_26_A,3,test,R,155,3,620,550,R,1,<rshift>,1,1,517675,380
Control_TS_26_A,3,test,R,156,3,620,550,R,1,<rshift>,1,1,518675,389
Control_TS_26_A,3,test,R,157,3,620,550,R,1,<rshift>,1,1,519675,426
Control_TS_26_A,3,test,R,158,2,820,350,R,1,<rshift>,1,1,520675,394
Control_TS_26_A,3,test,R,159,3,620,550,R,1,<rshift>,1,1,521675,485
Control_TS_26_A,3,test,R,160,3,620,550,P,0,NONE,0,1,522675,950
Control_TS_26_A,3,test,R,161,2,820,350,R,1,<rshift>,1,1,523676,323
Control_TS_26_A,3,test,R,162,3,620,550,R,1,<rshift>,1,1,524675,394
Control_TS_26_A,3,test,R,163,2,820,350,R,1,<rshift>,1,1,525676,369
Control_TS_26_A,3,test,R,164,3,620,550,R,1,<rshift>,1,1,526675,384
Control_TS_26_A,3,test,R,165,1,620,350,P,0,NONE,0,1,527675,950
Control_TS_26_A,3,test,R,166,1,620,350,R,1,<rshift>,1,1,528675,432
Control_TS_26_A,3,test,R,167,2,820,350,R,1,<rshift>,1,1,529675,348
Control_TS_26_A,3,test,R,168,3,620,550,P,0,<rshift>,1,0,530675,445
Control_TS_26_A,3,test,R,169,4,820,550,P,0,<rshift>,1,0,531675,350
Control_TS_26_A,3,test,R,170,1,620,350,R,1,<rshift>,1,1,532675,352
Control_TS_26_A,3,test,R,171,2,820,350,P,0,NONE,0,1,533675,950
Control_TS_26_A,3,test,R,172,3,620,550,R,1,<rshift>,1,1,534675,423
Control_TS_26_A,3,test,R,173,1,620,350,R,1,<rshift>,1,1,535676,511
Control_TS_26_A,3,test,R,174,2,820,350,R,1,<rshift>,1,1,536675,382
Control_TS_26_A,3,test,R,175,1,620,350,R,1,<rshift>,1,1,537675,397
Control_TS_26_A,3,test,R,176,1,620,350,P,0,<rshift>,1,0,538675,398
Control_TS_26_A,3,test,R,177,3,620,550,R,1,<rshift>,1,1,539675,478
Control_TS_26_A,3,test,R,178,2,820,350,R,1,<rshift>,1,1,540676,449
Control_TS_26_A,3,test,R,179,2,820,350,R,1,<rshift>,1,1,541675,419
Control_TS_26_A,3,test,R,180,3,620,550,R,1,<rshift>,1,1,542675,445
Control_TS_26_A,3,test,R,181,1,620,350,R,1,<rshift>,1,1,543675,414
Control_TS_26_A,3,test,R,182,3,620,550,R,1,<rshift>,1,1,544675,464
Control_TS_26_A,3,test,R,183,2,820,350,P,0,<rshift>,1,0,545675,359
Control_TS_26_A,3,test,R,184,2,820,350,P,0,NONE,0,1,546675,951
Control_TS_26_A,3,test,R,185,3,620,550,R,1,<rshift>,1,1,547675,453
Control_TS_26_A,3,test,R,186,1,620,350,R,1,<rshift>,1,1,548675,360
Control_TS_26_A,3,test,R,187,2,820,350,R,1,<rshift>,1,1,549675,417
Control_TS_26_A,3,test,R,188,1,620,350,P,0,<rshift>,1,0,550675,343
Control_TS_26_A,3,test,R,189,4,820,550,R,1,<rshift>,1,1,551675,379
Control_TS_26_A,3,test,R,190,1,620,350,R,1,<rshift>,1,1,552675,423
Control_TS_26_A,3,test,R,191,1,620,350,R,1,NONE,0,0,553676,950
Control_TS_26_A,3,test,R,192,1,620,350,P,0,NONE,0,1,554675,950
Control_TS_26_A,3,test,R,193,4,820,550,R,1,<rshift>,1,1,555676,368
Control_TS_26_A,3,test,R,194,2,820,350,R,1,<rshift>,1,1,556676,367
Control_TS_26_A,3,test,R,195,4,820,550,R,1,<rshift>,1,1,557675,374
Control_TS_26_A,3,test,R,196,1,620,350,R,1,<rshift>,1,1,558675,429
Control_TS_26_A,3,test,R,197,2,820,350,R,1,<rshift>,1,1,559675,325
Control_TS_26_A,3,test,R,198,1,620,350,R,1,<rshift>,1,1,560675,407
Control_TS_26_A,3,test,R,199,3,620,550,R,1,<rshift>,1,1,561675,435
Control_TS_26_A,3,test,R,200,2,820,350,R,1,<rshift>,1,1,562675,318
Control_TS_26_A,3,test,R,201,2,820,350,R,1,<rshift>,1,1,563676,330
Control_TS_26_A,3,test,R,202,4,820,550,R,1,<rshift>,1,1,564675,434
Control_TS_26_A,3,test,R,203,4,820,550,R,1,<rshift>,1,1,565675,349
Control_TS_26_A,3,test,R,204,1,620,350,R,1,<rshift>,1,1,566676,295
Control_TS_26_A,3,test,R,205,1,620,350,R,1,<rshift>,1,1,567676,344
Control_TS_26_A,3,test,R,206,4,820,550,R,1,<rshift>,1,1,568675,316
Control_TS_26_A,3,test,R,207,3,620,550,R,1,<rshift>,1,1,569675,367
Control_TS_26_A,3,test,R,208,3,620,550,R,1,<rshift>,1,1,570676,335
Control_TS_26_A,3,test,R,209,3,620,550,R,1,<rshift>,1,1,571675,253
Control_TS_26_A,3,test,R,210,2,820,350,P,0,<rshift>,1,0,572675,255
Control_TS_26_A,3,test,R,211,3,620,550,R,1,<rshift>,1,1,573675,331
Control_TS_26_A,3,test,R,212,2,820,350,R,1,<rshift>,1,1,574675,368
Control_TS_26_A,3,test,R,213,1,620,350,R,1,<rshift>,1,1,575675,337
Control_TS_26_A,3,test,R,214,1,620,350,P,0,<rshift>,1,0,576676,343
Control_TS_26_A,3,test,R,215,4,820,550,R,1,<rshift>,1,1,577675,160
Control_TS_26_A,3,test,R,216,1,620,350,R,1,<rshift>,1,1,578676,294
Control_TS_26_A,3,test,R,217,3,620,550,R,1,<rshift>,1,1,579675,349
Control_TS_26_A,3,test,R,218,4,820,550,R,1,<rshift>,1,1,580675,354
Control_TS_26_A,3,test,R,219,1,620,350,R,1,<rshift>,1,1,581675,301
Control_TS_26_A,3,test,R,220,3,620,550,R,1,<rshift>,1,1,582676,348
Control_TS_26_A,3,test,R,221,1,620,350,R,1,<rshift>,1,1,583675,364
Control_TS_26_A,3,test,R,222,4,820,550,P,0,<rshift>,1,0,584675,336
Control_TS_26_A,3,test,R,223,1,620,350,P,0,<rshift>,1,0,585675,117
Control_TS_26_A,3,test,R,224,1,620,350,P,0,NONE,0,1,586676,950
Control_TS_26_A,3,test,R,225,1,620,350,P,0,NONE,0,1,587676,950
Control_TS_26_A,3,test,R,226,1,620,350,R,1,<rshift>,1,1,588675,612
Control_TS_26_A,3,test,R,227,1,620,350,R,1,<rshift>,1,1,589675,398
Control_TS_26_A,3,test,R,228,4,820,550,P,0,<rshift>,1,0,590675,380
Control_TS_26_A,3,test,R,229,1,620,350,R,1,<rshift>,1,1,591675,309
Control_TS_26_A,3,test,R,230,3,620,550,R,1,<rshift>,1,1,592675,398
Control_TS_26_A,3,test,R,231,1,620,350,R,1,<rshift>,1,1,593675,456
Control_TS_26_A,3,test,R,232,4,820,550,P,0,NONE,0,1,594675,951
Control_TS_26_A,3,test,R,233,4,820,550,R,1,<rshift>,1,1,595675,439
Control_TS_26_A,3,test,R,234,1,620,350,R,1,<rshift>,1,1,596675,452
Control_TS_26_A,3,test,R,235,2,820,350,R,1,<rshift>,1,1,597676,394
Control_TS_26_A,3,test,R,236,1,620,350,R,1,<rshift>,1,1,598675,372
Control_TS_26_A,3,test,R,237,1,620,350,R,1,<rshift>,1,1,599675,412
Control_TS_26_A,3,test,R,238,4,820,550,R,1,<rshift>,1,1,600675,443
Control_TS_26_A,3,test,R,239,3,620,550,P,0,<rshift>,1,0,601675,401
Control_TS_26_A,3,test,R,240,2,820,350,R,1,<rshift>,1,1,602675,304
Control_TS_26_A,3,test,R,241,1,620,350,R,1,<rshift>,1,1,603675,337
Control_TS_26_A,3,test,R,242,1,620,350,R,1,<rshift>,1,1,604676,371
Control_TS_26_A,3,test,R,243,2,820,350,P,0,<rshift>,1,0,605675,372
Control_TS_26_A,3,test,R,244,2,820,350,R,1,<rshift>,1,1,606675,401
Control_TS_26_A,3,test,R,245,4,820,550,R,1,<rshift>,1,1,607675,395
Control_TS_26_A,3,test,R,246,2,820,350,R,1,<rshift>,1,1,608675,406
Control_TS_26_A,3,test,R,247,4,820,550,R,1,<rshift>,1,1,609676,418
Control_TS_26_A,3,test,R,248,1,620,350,P,0,<rshift>,1,0,610675,364
Control_TS_26_A,3,test,R,249,1,620,350,R,1,<rshift>,1,1,611675,400
Control_TS_26_A,3,test,R,250,4,820,550,R,1,<rshift>,1,1,612676,379
Control_TS_26_A,3,test,R,251,1,620,350,R,1,<rshift>,1,1,613675,374
Control_TS_26_A,3,test,R,252,3,620,550,R,1,<rshift>,1,1,614675,414
Control_TS_26_A,3,test,R,253,4,820,550,R,1,<rshift>,1,1,615675,380
Control_TS_26_A,3,test,R,254,2,820,350,R,1,<rshift>,1,1,616675,343
Control_TS_26_A,3,test,R,255,2,820,350,R,1,<rshift>,1,1,617676,410
Control_TS_26_A,3,test,R,256,4,820,550,R,1,<rshift>,1,1,618675,419
Control_TS_26_A,3,test,R,257,2,820,350,R,1,<rshift>,1,1,619676,350
Control_TS_26_A,3,test,R,258,2,820,350,R,1,<rshift>,1,1,620675,389
Control_TS_26_A,3,test,R,259,1,620,350,R,1,<rshift>,1,1,621675,372
Control_TS_26_A,3,test,R,260,3,620,550,R,1,<rshift>,1,1,622675,384
Control_TS_26_A,3,test,R,261,1,620,350,R,1,<rshift>,1,1,623675,470
Control_TS_26_A,3,test,R,262,1,620,350,R,1,<rshift>,1,1,624675,413
Control_TS_26_A,3,test,R,263,3,620,550,R,1,<rshift>,1,1,625675,399
Control_TS_26_A,3,test,R,264,2,820,350,R,1,<rshift>,1,1,626675,343
Control_TS_26_A,3,test,R,265,1,620,350,P,0,<rshift>,1,0,627675,300
Control_TS_26_A,3,test,R,266,4,820,550,R,1,<rshift>,1,1,628675,326
Control_TS_26_A,3,test,R,267,3,620,550,R,1,<rshift>,1,1,629675,348
Control_TS_26_A,3,test,R,268,2,820,350,R,1,<rshift>,1,1,630675,332
Control_TS_26_A,3,test,R,269,1,620,350,R,1,<rshift>,1,1,631675,418
Control_TS_26_A,3,test,R,270,2,820,350,R,1,<rshift>,1,1,632675,367
Control_TS_26_A,3,test,R,271,2,820,350,R,1,<rshift>,1,1,633675,363
Control_TS_26_A,3,test,R,272,3,620,550,P,0,<rshift>,1,0,634675,448
Control_TS_26_A,3,test,R,273,1,620,350,R,1,<rshift>,1,1,635675,280
Control_TS_26_A,3,test,R,274,4,820,550,R,1,<rshift>,1,1,636675,366
Control_TS_26_A,3,test,R,275,4,820,550,P,0,<rshift>,1,0,637675,397
Control_TS_26_A,3,test,R,276,3,620,550,P,0,NONE,0,1,638675,951
Control_TS_26_A,3,test,R,277,3,620,550,P,0,NONE,0,1,639676,950
Control_TS_26_A,3,test,R,278,2,820,350,R,1,<rshift>,1,1,640675,371
Control_TS_26_A,3,test,R,279,3,620,550,R,1,<rshift>,1,1,641676,379
Control_TS_26_A,3,test,R,280,3,620,550,R,1,<rshift>,1,1,642675,447
Control_TS_26_A,3,test,R,281,1,620,350,R,1,<rshift>,1,1,643675,385
Control_TS_26_A,3,test,R,282,2,820,350,P,0,<rshift>,1,0,644675,300
Control_TS_26_A,3,test,R,283,2,820,350,P,0,NONE,0,1,645675,950
Control_TS_26_A,3,test,R,284,4,820,550,R,1,<rshift>,1,1,646676,360
Control_TS_26_A,3,test,R,285,1,620,350,P,0,<rshift>,1,0,647675,341
Control_TS_26_A,3,test,R,286,1,620,350,R,1,<rshift>,1,1,648675,393
Control_TS_26_A,3,test,R,287,3,620,550,R,1,<rshift>,1,1,649675,481
Control_TS_26_A,3,test,R,288,2,820,350,R,1,<rshift>,1,1,650675,381
Control_TS_26_A,3,test,R,289,2,820,350,R,1,<rshift>,1,1,651675,359
Control_TS_26_A,3,test,R,290,4,820,550,R,1,<rshift>,1,1,652675,361
Control_TS_26_A,3,test,R,291,1,620,350,R,1,<rshift>,1,1,653675,339
Control_TS_26_A,3,test,R,292,2,820,350,R,1,<rshift>,1,1,654675,339
Control_TS_26_A,3,test,R,293,3,620,550,R,1,<rshift>,1,1,655676,381
Control_TS_26_A,3,test,R,294,2,820,350,R,1,<rshift>,1,1,656675,435
Control_TS_26_A,3,test,R,295,2,820,350,R,1,<rshift>,1,1,657675,404
Control_TS_26_A,3,test,R,296,4,820,550,R,1,<rshift>,1,1,658675,448
Control_TS_26_A,3,test,R,297,3,620,550,R,1,<rshift>,1,1,659675,332
Control_TS_26_A,3,test,R,298,2,820,350,R,1,<rshift>,1,1,660675,335
Control_TS_26_A,3,test,R,299,3,620,550,R,1,<rshift>,1,1,661675,314
Control_TS_26_A,3,test,R,300,1,620,350,R,1,<rshift>,1,1,662676,402
