subnum,block,type,correctresponse,trial,choice,x,y,stim,present,response,responded,corr,starttime,rt
Controlli_TS_2_B,0,practice,P,1,3,620,550,P,1,NONE,0,0,8529,950
Controlli_TS_2_B,0,practice,P,2,2,820,350,R,0,NONE,0,1,10499,950
Controlli_TS_2_B,0,practice,P,3,4,820,550,P,1,<rshift>,1,1,11454,753
Controlli_TS_2_B,0,practice,P,4,2,820,350,P,1,<rshift>,1,1,12212,668
Controlli_TS_2_B,0,practice,P,5,4,820,550,P,1,<rshift>,1,1,12886,562
Controlli_TS_2_B,0,practice,P,6,4,820,550,P,1,<rshift>,1,1,13528,520
Controlli_TS_2_B,0,practice,P,7,3,620,550,P,1,<rshift>,1,1,14529,528
Controlli_TS_2_B,0,practice,P,8,1,620,350,P,1,<rshift>,1,1,15527,528
Controlli_TS_2_B,0,practice,P,9,1,620,350,R,0,NONE,0,1,16528,950
Controlli_TS_2_B,0,practice,P,10,2,820,350,P,1,<rshift>,1,1,17527,397
Controlli_TS_2_B,1,test,P,1,2,820,350,R,0,NONE,0,1,28848,950
Controlli_TS_2_B,1,test,P,2,1,620,350,P,1,<rshift>,1,1,29847,395
Controlli_TS_2_B,1,test,P,3,1,620,350,R,0,NONE,0,1,30847,950
Controlli_TS_2_B,1,test,P,4,3,620,550,R,0,NONE,0,1,31847,951
Controlli_TS_2_B,1,test,P,5,1,620,350,R,0,NONE,0,1,32848,950
Controlli_TS_2_B,1,test,P,6,2,820,350,P,1,<rshift>,1,1,33848,514
Controlli_TS_2_B,1,test,P,7,3,620,550,R,0,NONE,0,1,34847,950
Controlli_TS_2_B,1,test,P,8,4,820,550,P,1,<rshift>,1,1,35847,375
Controlli_TS_2_B,1,test,P,9,2,820,350,P,1,<rshift>,1,1,36847,401
Controlli_TS_2_B,1,test,P,10,4,820,550,P,1,<rshift>,1,1,37848,450
Controlli_TS_2_B,1,test,P,11,2,820,350,P,1,<rshift>,1,1,38849,373
Controlli_TS_2_B,1,test,P,12,1,620,350,P,1,<rshift>,1,1,39849,409
Controlli_TS_2_B,1,test,P,13,3,620,550,P,1,<rshift>,1,1,40849,333
Controlli_TS_2_B,1,test,P,14,1,620,350,P,1,<rshift>,1,1,41847,324
Controlli_TS_2_B,1,test,P,15,4,820,550,P,1,<rshift>,1,1,42849,317
Controlli_TS_2_B,1,test,P,16,2,820,350,P,1,<rshift>,1,1,43849,294
Controlli_TS_2_B,1,test,P,17,1,620,350,R,0,<rshift>,1,0,44849,354
Controlli_TS_2_B,1,test,P,18,4,820,550,P,1,<rshift>,1,1,45847,592
Controlli_TS_2_B,1,test,P,19,4,820,550,P,1,<rshift>,1,1,46847,558
Controlli_TS_2_B,1,test,P,20,1,620,350,P,1,<rshift>,1,1,47847,589
Controlli_TS_2_B,1,test,P,21,1,620,350,P,1,<rshift>,1,1,48849,556
Controlli_TS_2_B,1,test,P,22,2,820,350,P,1,<rshift>,1,1,49847,495
Controlli_TS_2_B,1,test,P,23,2,820,350,P,1,<rshift>,1,1,50847,506
Controlli_TS_2_B,1,test,P,24,4,820,550,P,1,<rshift>,1,1,51847,539
Controlli_TS_2_B,1,test,P,25,3,620,550,R,0,NONE,0,1,52848,950
Controlli_TS_2_B,1,test,P,26,2,820,350,R,0,NONE,0,1,53848,950
Controlli_TS_2_B,1,test,P,27,3,620,550,P,1,<rshift>,1,1,54847,577
Controlli_TS_2_B,1,test,P,28,4,820,550,P,1,<rshift>,1,1,55849,546
Controlli_TS_2_B,1,test,P,29,1,620,350,R,0,NONE,0,1,56849,950
Controlli_TS_2_B,1,test,P,30,2,820,350,P,1,<rshift>,1,1,57848,504
Controlli_TS_2_B,1,test,P,31,1,620,350,R,0,NONE,0,1,58847,950
Controlli_TS_2_B,1,test,P,32,1,620,350,P,1,<rshift>,1,1,59847,574
Controlli_TS_2_B,1,test,P,33,1,620,350,P,1,<rshift>,1,1,60849,454
Controlli_TS_2_B,1,test,P,34,4,820,550,P,1,<rshift>,1,1,61847,477
Controlli_TS_2_B,1,test,P,35,3,620,550,P,1,<rshift>,1,1,62848,437
Controlli_TS_2_B,1,test,P,36,1,620,350,P,1,<rshift>,1,1,63847,390
Controlli_TS_2_B,1,test,P,37,2,820,350,P,1,<rshift>,1,1,64849,430
Controlli_TS_2_B,1,test,P,38,1,620,350,P,1,<rshift>,1,1,65849,583
Controlli_TS_2_B,1,test,P,39,2,820,350,P,1,<rshift>,1,1,66847,584
Controlli_TS_2_B,1,test,P,40,4,820,550,P,1,<rshift>,1,1,67847,537
Controlli_TS_2_B,1,test,P,41,3,620,550,P,1,<rshift>,1,1,68849,592
Controlli_TS_2_B,1,test,P,42,1,620,350,P,1,<rshift>,1,1,69847,524
Controlli_TS_2_B,1,test,P,43,2,820,350,P,1,<rshift>,1,1,70847,494
Controlli_TS_2_B,1,test,P,44,2,820,350,P,1,<rshift>,1,1,71849,499
Controlli_TS_2_B,1,test,P,45,2,820,350,P,1,<rshift>,1,1,72847,596
Controlli_TS_2_B,1,test,P,46,2,820,350,P,1,<rshift>,1,1,73847,735
Controlli_TS_2_B,1,test,P,47,2,820,350,P,1,<rshift>,1,1,74848,775
Controlli_TS_2_B,1,test,P,48,4,820,550,P,1,<rshift>,1,1,75847,932
Controlli_TS_2_B,1,test,P,49,3,620,550,P,1,<rshift>,1,1,76847,916
Controlli_TS_2_B,1,test,P,50,4,820,550,P,1,NONE,0,0,77847,950
Controlli_TS_2_B,1,test,P,51,2,820,350,P,1,<rshift>,1,1,78849,947
Controlli_TS_2_B,1,test,P,52,2,820,350,P,1,NONE,0,0,79847,950
Controlli_TS_2_B,1,test,P,53,2,820,350,P,1,<rshift>,1,1,80847,62
Controlli_TS_2_B,1,test,P,54,2,820,350,P,1,<rshift>,1,1,81849,343
Controlli_TS_2_B,1,test,P,55,4,820,550,P,1,<rshift>,1,1,82847,524
Controlli_TS_2_B,1,test,P,56,1,620,350,P,1,<rshift>,1,1,83847,464
Controlli_TS_2_B,1,test,P,57,2,820,350,P,1,<rshift>,1,1,84847,428
Controlli_TS_2_B,1,test,P,58,1,620,350,P,1,<rshift>,1,1,85849,415
Controlli_TS_2_B,1,test,P,59,2,820,350,P,1,<rshift>,1,1,86847,483
Controlli_TS_2_B,1,test,P,60,2,820,350,P,1,<rshift>,1,1,87848,627
Controlli_TS_2_B,1,test,P,61,1,620,350,P,1,<rshift>,1,1,88849,635
Controlli_TS_2_B,1,test,P,62,1,620,350,P,1,<rshift>,1,1,89847,566
Controlli_TS_2_B,1,test,P,63,1,620,350,R,0,NONE,0,1,90847,950
Controlli_TS_2_B,1,test,P,64,2,820,350,R,0,NONE,0,1,91847,950
Controlli_TS_2_B,1,test,P,65,3,620,550,P,1,<rshift>,1,1,92847,569
Controlli_TS_2_B,1,test,P,66,3,620,550,P,1,<rshift>,1,1,93847,675
Controlli_TS_2_B,1,test,P,67,4,820,550,R,0,NONE,0,1,94849,950
Controlli_TS_2_B,1,test,P,68,3,620,550,P,1,<rshift>,1,1,95849,583
Controlli_TS_2_B,1,test,P,69,4,820,550,P,1,<rshift>,1,1,96847,540
Controlli_TS_2_B,1,test,P,70,1,620,350,P,1,<rshift>,1,1,97847,511
Controlli_TS_2_B,1,test,P,71,1,620,350,P,1,<rshift>,1,1,98848,462
Controlli_TS_2_B,1,test,P,72,3,620,550,P,1,<rshift>,1,1,99849,541
Controlli_TS_2_B,1,test,P,73,4,820,550,P,1,<rshift>,1,1,100847,531
Controlli_TS_2_B,1,test,P,74,3,620,550,P,1,<rshift>,1,1,101849,554
Controlli_TS_2_B,1,test,P,75,3,620,550,R,0,NONE,0,1,102847,950
Controlli_TS_2_B,1,test,P,76,3,620,550,P,1,<rshift>,1,1,103847,541
Controlli_TS_2_B,1,test,P,77,2,820,350,P,1,<rshift>,1,1,104847,489
Controlli_TS_2_B,1,test,P,78,2,820,350,R,0,NONE,0,1,105847,950
Controlli_TS_2_B,1,test,P,79,1,620,350,P,1,<rshift>,1,1,106848,455
Controlli_TS_2_B,1,test,P,80,3,620,550,P,1,<rshift>,1,1,107847,573
Controlli_TS_2_B,1,test,P,81,4,820,550,P,1,<rshift>,1,1,108848,460
Controlli_TS_2_B,1,test,P,82,1,620,350,P,1,<rshift>,1,1,109849,643
Controlli_TS_2_B,1,test,P,83,4,820,550,P,1,<rshift>,1,1,110847,510
Controlli_TS_2_B,1,test,P,84,3,620,550,P,1,<rshift>,1,1,111847,569
Controlli_TS_2_B,1,test,P,85,3,620,550,P,1,<rshift>,1,1,112848,500
Controlli_TS_2_B,1,test,P,86,3,620,550,R,0,NONE,0,1,113849,950
Controlli_TS_2_B,1,test,P,87,2,820,350,P,1,<rshift>,1,1,114847,445
Controlli_TS_2_B,1,test,P,88,1,620,350,R,0,NONE,0,1,115849,950
Controlli_TS_2_B,1,test,P,89,2,820,350,P,1,<rshift>,1,1,116849,448
Controlli_TS_2_B,1,test,P,90,3,620,550,P,1,<rshift>,1,1,117848,496
Controlli_TS_2_B,1,test,P,91,2,820,350,R,0,NONE,0,1,118849,950
Controlli_TS_2_B,1,test,P,92,1,620,350,R,0,NONE,0,1,119848,950
Controlli_TS_2_B,1,test,P,93,1,620,350,P,1,<rshift>,1,1,120847,562
Controlli_TS_2_B,1,test,P,94,1,620,350,R,0,NONE,0,1,121847,950
Controlli_TS_2_B,1,test,P,95,3,620,550,R,0,NONE,0,1,122847,950
Controlli_TS_2_B,1,test,P,96,2,820,350,P,1,<rshift>,1,1,123847,490
Controlli_TS_2_B,1,test,P,97,4,820,550,P,1,<rshift>,1,1,124849,575
Controlli_TS_2_B,1,test,P,98,2,820,350,R,0,NONE,0,1,125847,950
Controlli_TS_2_B,1,test,P,99,2,820,350,P,1,<rshift>,1,1,126848,506
Controlli_TS_2_B,1,test,P,100,3,620,550,P,1,<rshift>,1,1,127847,617
Controlli_TS_2_B,1,test,P,101,4,820,550,P,1,<rshift>,1,1,128864,666
Controlli_TS_2_B,1,test,P,102,4,820,550,P,1,<rshift>,1,1,129849,673
Controlli_TS_2_B,1,test,P,103,3,620,550,R,0,NONE,0,1,130847,950
Controlli_TS_2_B,1,test,P,104,4,820,550,P,1,<rshift>,1,1,131847,475
Controlli_TS_2_B,1,test,P,105,1,620,350,P,1,<rshift>,1,1,132847,536
Controlli_TS_2_B,1,test,P,106,2,820,350,P,1,<rshift>,1,1,133849,517
Controlli_TS_2_B,1,test,P,107,2,820,350,P,1,<rshift>,1,1,134847,538
Controlli_TS_2_B,1,test,P,108,1,620,350,P,1,<rshift>,1,1,135849,569
Controlli_TS_2_B,1,test,P,109,1,620,350,P,1,<rshift>,1,1,136847,524
Controlli_TS_2_B,1,test,P,110,1,620,350,P,1,<rshift>,1,1,137847,770
Controlli_TS_2_B,1,test,P,111,1,620,350,P,1,NONE,0,0,138849,950
Controlli_TS_2_B,1,test,P,112,3,620,550,P,1,<rshift>,1,1,139848,27
Controlli_TS_2_B,1,test,P,113,3,620,550,R,0,NONE,0,1,140848,950
Controlli_TS_2_B,1,test,P,114,2,820,350,P,1,NONE,0,0,141848,950
Controlli_TS_2_B,1,test,P,115,2,820,350,P,1,<rshift>,1,1,142847,43
Controlli_TS_2_B,1,test,P,116,3,620,550,P,1,<rshift>,1,1,143847,827
Controlli_TS_2_B,1,test,P,117,3,620,550,P,1,NONE,0,0,144847,950
Controlli_TS_2_B,1,test,P,118,4,820,550,P,1,<rshift>,1,1,145847,148
Controlli_TS_2_B,1,test,P,119,4,820,550,P,1,<rshift>,1,1,146849,534
Controlli_TS_2_B,1,test,P,120,1,620,350,R,0,NONE,0,1,147847,950
Controlli_TS_2_B,1,test,P,121,1,620,350,P,1,NONE,0,0,148847,950
Controlli_TS_2_B,1,test,P,122,4,820,550,P,1,<rshift>,1,1,149849,36
Controlli_TS_2_B,1,test,P,123,1,620,350,P,1,<rshift>,1,1,150847,504
Controlli_TS_2_B,1,test,P,124,1,620,350,P,1,<rshift>,1,1,151847,574
Controlli_TS_2_B,1,test,P,125,1,620,350,P,1,<rshift>,1,1,152847,522
Controlli_TS_2_B,1,test,P,126,1,620,350,R,0,NONE,0,1,153847,950
Controlli_TS_2_B,1,test,P,127,2,820,350,P,1,<rshift>,1,1,154847,530
Controlli_TS_2_B,1,test,P,128,3,620,550,P,1,<rshift>,1,1,155847,587
Controlli_TS_2_B,1,test,P,129,3,620,550,P,1,<rshift>,1,1,156847,705
Controlli_TS_2_B,1,test,P,130,3,620,550,P,1,NONE,0,0,157847,950
Controlli_TS_2_B,1,test,P,131,2,820,350,R,0,NONE,0,1,158848,950
Controlli_TS_2_B,1,test,P,132,4,820,550,R,0,NONE,0,1,159849,950
Controlli_TS_2_B,1,test,P,133,2,820,350,P,1,<rshift>,1,1,160847,499
Controlli_TS_2_B,1,test,P,134,2,820,350,P,1,<rshift>,1,1,161847,497
Controlli_TS_2_B,1,test,P,135,2,820,350,P,1,<rshift>,1,1,162848,574
Controlli_TS_2_B,1,test,P,136,2,820,350,P,1,<rshift>,1,1,163848,908
Controlli_TS_2_B,1,test,P,137,1,620,350,P,1,NONE,0,0,164849,950
Controlli_TS_2_B,1,test,P,138,3,620,550,P,1,<rshift>,1,1,165849,476
Controlli_TS_2_B,1,test,P,139,2,820,350,R,0,NONE,0,1,166847,950
Controlli_TS_2_B,1,test,P,140,2,820,350,P,1,<rshift>,1,1,167848,602
Controlli_TS_2_B,1,test,P,141,1,620,350,P,1,<rshift>,1,1,168849,534
Controlli_TS_2_B,1,test,P,142,4,820,550,R,0,NONE,0,1,169847,950
Controlli_TS_2_B,1,test,P,143,4,820,550,P,1,<rshift>,1,1,170847,543
Controlli_TS_2_B,1,test,P,144,1,620,350,R,0,NONE,0,1,171849,950
Controlli_TS_2_B,1,test,P,145,1,620,350,R,0,NONE,0,1,172847,950
Controlli_TS_2_B,1,test,P,146,3,620,550,R,0,NONE,0,1,173847,951
Controlli_TS_2_B,1,test,P,147,2,820,350,P,1,<rshift>,1,1,174848,399
Controlli_TS_2_B,1,test,P,148,3,620,550,P,1,<rshift>,1,1,175849,610
Controlli_TS_2_B,1,test,P,149,1,620,350,P,1,<rshift>,1,1,176849,507
Controlli_TS_2_B,1,test,P,150,3,620,550,P,1,<rshift>,1,1,177848,578
Controlli_TS_2_B,1,test,P,151,2,820,350,P,1,<rshift>,1,1,178848,447
Controlli_TS_2_B,1,test,P,152,4,820,550,P,1,<rshift>,1,1,179847,577
Controlli_TS_2_B,1,test,P,153,1,620,350,P,1,<rshift>,1,1,180847,563
Controlli_TS_2_B,1,test,P,154,1,620,350,P,1,<rshift>,1,1,181849,636
Controlli_TS_2_B,1,test,P,155,3,620,550,P,1,<rshift>,1,1,182849,669
Controlli_TS_2_B,1,test,P,156,2,820,350,P,1,<rshift>,1,1,183847,719
Controlli_TS_2_B,1,test,P,157,4,820,550,P,1,<rshift>,1,1,184849,767
Controlli_TS_2_B,1,test,P,158,3,620,550,P,1,<rshift>,1,1,185849,771
Controlli_TS_2_B,1,test,P,159,1,620,350,P,1,<rshift>,1,1,186847,780
Controlli_TS_2_B,1,test,P,160,1,620,350,P,1,NONE,0,0,187847,951
Controlli_TS_2_B,1,test,P,161,3,620,550,P,1,<rshift>,1,1,188847,332
Controlli_TS_2_B,1,test,P,162,4,820,550,P,1,<rshift>,1,1,189849,368
Controlli_TS_2_B,1,test,P,163,4,820,550,P,1,<rshift>,1,1,190849,389
Controlli_TS_2_B,1,test,P,164,4,820,550,P,1,<rshift>,1,1,191847,630
Controlli_TS_2_B,1,test,P,165,4,820,550,P,1,<rshift>,1,1,192848,440
Controlli_TS_2_B,1,test,P,166,4,820,550,P,1,<rshift>,1,1,193849,407
Controlli_TS_2_B,1,test,P,167,2,820,350,P,1,<rshift>,1,1,194847,449
Controlli_TS_2_B,1,test,P,168,2,820,350,P,1,<rshift>,1,1,195847,417
Controlli_TS_2_B,1,test,P,169,4,820,550,P,1,<rshift>,1,1,196847,489
Controlli_TS_2_B,1,test,P,170,2,820,350,R,0,NONE,0,1,197848,950
Controlli_TS_2_B,1,test,P,171,1,620,350,P,1,<rshift>,1,1,198847,544
Controlli_TS_2_B,1,test,P,172,3,620,550,P,1,<rshift>,1,1,199848,438
Controlli_TS_2_B,1,test,P,173,1,620,350,R,0,NONE,0,1,200847,950
Controlli_TS_2_B,1,test,P,174,2,820,350,R,0,NONE,0,1,201847,950
Controlli_TS_2_B,1,test,P,175,4,820,550,P,1,<rshift>,1,1,202847,506
Controlli_TS_2_B,1,test,P,176,2,820,350,P,1,<rshift>,1,1,203849,442
Controlli_TS_2_B,1,test,P,177,1,620,350,P,1,<rshift>,1,1,204847,491
Controlli_TS_2_B,1,test,P,178,2,820,350,P,1,<rshift>,1,1,205847,437
Controlli_TS_2_B,1,test,P,179,3,620,550,P,1,<rshift>,1,1,206848,426
Controlli_TS_2_B,1,test,P,180,4,820,550,P,1,<rshift>,1,1,207848,352
Controlli_TS_2_B,1,test,P,181,2,820,350,R,0,NONE,0,1,208847,950
Controlli_TS_2_B,1,test,P,182,3,620,550,P,1,<rshift>,1,1,209847,411
Controlli_TS_2_B,1,test,P,183,4,820,550,P,1,<rshift>,1,1,210847,396
Controlli_TS_2_B,1,test,P,184,1,620,350,P,1,<rshift>,1,1,211847,454
Controlli_TS_2_B,1,test,P,185,3,620,550,P,1,<rshift>,1,1,212847,441
Controlli_TS_2_B,1,test,P,186,2,820,350,P,1,<rshift>,1,1,213847,424
Controlli_TS_2_B,1,test,P,187,2,820,350,P,1,<rshift>,1,1,214849,446
Controlli_TS_2_B,1,test,P,188,2,820,350,P,1,<rshift>,1,1,215847,415
Controlli_TS_2_B,1,test,P,189,2,820,350,P,1,<rshift>,1,1,216847,373
Controlli_TS_2_B,1,test,P,190,2,820,350,P,1,<rshift>,1,1,217847,371
Controlli_TS_2_B,1,test,P,191,4,820,550,P,1,<rshift>,1,1,218847,570
Controlli_TS_2_B,1,test,P,192,4,820,550,R,0,NONE,0,1,219849,950
Controlli_TS_2_B,1,test,P,193,3,620,550,P,1,<rshift>,1,1,220847,498
Controlli_TS_2_B,1,test,P,194,2,820,350,P,1,<rshift>,1,1,221847,380
Controlli_TS_2_B,1,test,P,195,3,620,550,P,1,<rshift>,1,1,222847,452
Controlli_TS_2_B,1,test,P,196,1,620,350,P,1,<rshift>,1,1,223847,428
Controlli_TS_2_B,1,test,P,197,1,620,350,P,1,<rshift>,1,1,224847,496
Controlli_TS_2_B,1,test,P,198,3,620,550,P,1,<rshift>,1,1,225849,506
Controlli_TS_2_B,1,test,P,199,1,620,350,P,1,<rshift>,1,1,226847,465
Controlli_TS_2_B,1,test,P,200,2,820,350,P,1,<rshift>,1,1,227848,443
Controlli_TS_2_B,1,test,P,201,2,820,350,P,1,<rshift>,1,1,228848,443
Controlli_TS_2_B,1,test,P,202,2,820,350,R,0,NONE,0,1,229848,950
Controlli_TS_2_B,1,test,P,203,2,820,350,P,1,<rshift>,1,1,230848,468
Controlli_TS_2_B,1,test,P,204,2,820,350,P,1,<rshift>,1,1,231849,435
Controlli_TS_2_B,1,test,P,205,4,820,550,R,0,NONE,0,1,232849,950
Controlli_TS_2_B,1,test,P,206,2,820,350,R,0,<rshift>,1,0,233847,374
Controlli_TS_2_B,1,test,P,207,2,820,350,P,1,NONE,0,0,234847,950
Controlli_TS_2_B,1,test,P,208,3,620,550,R,0,NONE,0,1,235847,950
Controlli_TS_2_B,1,test,P,209,3,620,550,P,1,<rshift>,1,1,236847,526
Controlli_TS_2_B,1,test,P,210,1,620,350,P,1,<rshift>,1,1,237847,406
Controlli_TS_2_B,1,test,P,211,3,620,550,P,1,<rshift>,1,1,238849,450
Controlli_TS_2_B,1,test,P,212,2,820,350,P,1,<rshift>,1,1,239847,391
Controlli_TS_2_B,1,test,P,213,2,820,350,P,1,<rshift>,1,1,240848,392
Controlli_TS_2_B,1,test,P,214,1,620,350,P,1,<rshift>,1,1,241849,521
Controlli_TS_2_B,1,test,P,215,3,620,550,R,0,NONE,0,1,242847,950
Controlli_TS_2_B,1,test,P,216,3,620,550,P,1,<rshift>,1,1,243847,657
Controlli_TS_2_B,1,test,P,217,4,820,550,P,1,<rshift>,1,1,244849,550
Controlli_TS_2_B,1,test,P,218,1,620,350,P,1,<rshift>,1,1,245849,508
Controlli_TS_2_B,1,test,P,219,4,820,550,P,1,<rshift>,1,1,246847,433
Controlli_TS_2_B,1,test,P,220,4,820,550,P,1,<rshift>,1,1,247848,460
Controlli_TS_2_B,1,test,P,221,1,620,350,P,1,<rshift>,1,1,248849,565
Controlli_TS_2_B,1,test,P,222,1,620,350,P,1,<rshift>,1,1,249847,490
Controlli_TS_2_B,1,test,P,223,1,620,350,P,1,<rshift>,1,1,250849,437
Controlli_TS_2_B,1,test,P,224,4,820,550,P,1,<rshift>,1,1,251847,445
Controlli_TS_2_B,1,test,P,225,4,820,550,P,1,<rshift>,1,1,252849,400
Controlli_TS_2_B,1,test,P,226,4,820,550,P,1,<rshift>,1,1,253848,426
Controlli_TS_2_B,1,test,P,227,3,620,550,R,0,NONE,0,1,254849,950
Controlli_TS_2_B,1,test,P,228,1,620,350,P,1,<rshift>,1,1,255847,441
Controlli_TS_2_B,1,test,P,229,2,820,350,P,1,<rshift>,1,1,256847,410
Controlli_TS_2_B,1,test,P,230,3,620,550,P,1,<rshift>,1,1,257847,434
Controlli_TS_2_B,1,test,P,231,1,620,350,P,1,<rshift>,1,1,258849,545
Controlli_TS_2_B,1,test,P,232,2,820,350,P,1,<rshift>,1,1,259847,521
Controlli_TS_2_B,1,test,P,233,2,820,350,P,1,<rshift>,1,1,260847,459
Controlli_TS_2_B,1,test,P,234,4,820,550,P,1,<rshift>,1,1,261847,510
Controlli_TS_2_B,1,test,P,235,4,820,550,P,1,<rshift>,1,1,262849,547
Controlli_TS_2_B,1,test,P,236,2,820,350,R,0,NONE,0,1,263849,950
Controlli_TS_2_B,1,test,P,237,2,820,350,P,1,<rshift>,1,1,264847,536
Controlli_TS_2_B,1,test,P,238,2,820,350,R,0,NONE,0,1,265847,950
Controlli_TS_2_B,1,test,P,239,2,820,350,P,1,<rshift>,1,1,266847,455
Controlli_TS_2_B,1,test,P,240,2,820,350,P,1,<rshift>,1,1,267848,424
Controlli_TS_2_B,1,test,P,241,3,620,550,P,1,<rshift>,1,1,268847,771
Controlli_TS_2_B,1,test,P,242,1,620,350,P,1,<rshift>,1,1,269847,573
Controlli_TS_2_B,1,test,P,243,3,620,550,R,0,NONE,0,1,270847,950
Controlli_TS_2_B,1,test,P,244,2,820,350,P,1,<rshift>,1,1,271848,320
Controlli_TS_2_B,1,test,P,245,1,620,350,P,1,<rshift>,1,1,272849,645
Controlli_TS_2_B,1,test,P,246,2,820,350,R,0,NONE,0,1,273847,950
Controlli_TS_2_B,1,test,P,247,4,820,550,R,0,NONE,0,1,274848,950
Controlli_TS_2_B,1,test,P,248,4,820,550,P,1,<rshift>,1,1,275849,519
Controlli_TS_2_B,1,test,P,249,4,820,550,P,1,<rshift>,1,1,276849,381
Controlli_TS_2_B,1,test,P,250,4,820,550,R,0,NONE,0,1,277847,950
Controlli_TS_2_B,1,test,P,251,4,820,550,P,1,<rshift>,1,1,278849,467
Controlli_TS_2_B,1,test,P,252,1,620,350,P,1,<rshift>,1,1,279849,551
Controlli_TS_2_B,1,test,P,253,1,620,350,R,0,NONE,0,1,280849,950
Controlli_TS_2_B,1,test,P,254,2,820,350,P,1,<rshift>,1,1,281848,552
Controlli_TS_2_B,1,test,P,255,3,620,550,P,1,<rshift>,1,1,282847,632
Controlli_TS_2_B,1,test,P,256,2,820,350,P,1,<rshift>,1,1,283847,685
Controlli_TS_2_B,1,test,P,257,1,620,350,P,1,<rshift>,1,1,284847,591
Controlli_TS_2_B,1,test,P,258,2,820,350,P,1,<rshift>,1,1,285849,540
Controlli_TS_2_B,1,test,P,259,2,820,350,R,0,NONE,0,1,286848,950
Controlli_TS_2_B,1,test,P,260,4,820,550,P,1,<rshift>,1,1,287847,453
Controlli_TS_2_B,1,test,P,261,3,620,550,P,1,<rshift>,1,1,288849,503
Controlli_TS_2_B,1,test,P,262,2,820,350,P,1,<rshift>,1,1,289847,448
Controlli_TS_2_B,1,test,P,263,1,620,350,P,1,<rshift>,1,1,290847,457
Controlli_TS_2_B,1,test,P,264,3,620,550,P,1,<rshift>,1,1,291847,561
Controlli_TS_2_B,1,test,P,265,2,820,350,R,0,NONE,0,1,292847,950
Controlli_TS_2_B,1,test,P,266,3,620,550,P,1,<rshift>,1,1,293847,427
Controlli_TS_2_B,1,test,P,267,3,620,550,P,1,<rshift>,1,1,294847,707
Controlli_TS_2_B,1,test,P,268,2,820,350,P,1,<rshift>,1,1,295847,673
Controlli_TS_2_B,1,test,P,269,3,620,550,P,1,<rshift>,1,1,296849,641
Controlli_TS_2_B,1,test,P,270,1,620,350,P,1,<rshift>,1,1,297847,889
Controlli_TS_2_B,1,test,P,271,4,820,550,P,1,<rshift>,1,1,298849,676
Controlli_TS_2_B,1,test,P,272,4,820,550,R,0,NONE,0,1,299847,950
Controlli_TS_2_B,1,test,P,273,4,820,550,R,0,NONE,0,1,300849,950
Controlli_TS_2_B,1,test,P,274,2,820,350,P,1,<rshift>,1,1,301847,538
Controlli_TS_2_B,1,test,P,275,2,820,350,P,1,<rshift>,1,1,302847,519
Controlli_TS_2_B,1,test,P,276,4,820,550,P,1,<rshift>,1,1,303847,628
Controlli_TS_2_B,1,test,P,277,2,820,350,P,1,<rshift>,1,1,304849,496
Controlli_TS_2_B,1,test,P,278,4,820,550,P,1,<rshift>,1,1,305849,548
Controlli_TS_2_B,1,test,P,279,3,620,550,R,0,NONE,0,1,306847,950
Controlli_TS_2_B,1,test,P,280,4,820,550,R,0,NONE,0,1,307847,950
Controlli_TS_2_B,1,test,P,281,4,820,550,P,1,<rshift>,1,1,308847,580
Controlli_TS_2_B,1,test,P,282,3,620,550,P,1,<rshift>,1,1,309849,567
Controlli_TS_2_B,1,test,P,283,3,620,550,R,0,NONE,0,1,310847,950
Controlli_TS_2_B,1,test,P,284,2,820,350,P,1,<rshift>,1,1,311847,608
Controlli_TS_2_B,1,test,P,285,2,820,350,P,1,<rshift>,1,1,312847,482
Controlli_TS_2_B,1,test,P,286,3,620,550,R,0,NONE,0,1,313849,950
Controlli_TS_2_B,1,test,P,287,4,820,550,P,1,<rshift>,1,1,314847,448
Controlli_TS_2_B,1,test,P,288,1,620,350,P,1,<rshift>,1,1,315847,483
Controlli_TS_2_B,1,test,P,289,4,820,550,P,1,<rshift>,1,1,316847,466
Controlli_TS_2_B,1,test,P,290,2,820,350,P,1,<rshift>,1,1,317848,364
Controlli_TS_2_B,1,test,P,291,4,820,550,P,1,<rshift>,1,1,318847,567
Controlli_TS_2_B,1,test,P,292,1,620,350,P,1,<rshift>,1,1,319849,504
Controlli_TS_2_B,1,test,P,293,1,620,350,P,1,<rshift>,1,1,320847,476
Controlli_TS_2_B,1,test,P,294,4,820,550,P,1,<rshift>,1,1,321847,458
Controlli_TS_2_B,1,test,P,295,1,620,350,P,1,<rshift>,1,1,322849,451
Controlli_TS_2_B,1,test,P,296,4,820,550,R,0,NONE,0,1,323849,950
Controlli_TS_2_B,1,test,P,297,4,820,550,P,1,<rshift>,1,1,324849,703
Controlli_TS_2_B,1,test,P,298,3,620,550,P,1,NONE,0,0,325847,950
Controlli_TS_2_B,1,test,P,299,2,820,350,P,1,<rshift>,1,1,326847,68
Controlli_TS_2_B,1,test,P,300,1,620,350,P,1,<rshift>,1,1,327847,470
Controlli_TS_2_B,2,practice,R,1,2,820,350,P,0,NONE,0,1,393351,950
Controlli_TS_2_B,2,practice,R,2,3,620,550,R,1,<rshift>,1,1,394350,513
Controlli_TS_2_B,2,practice,R,3,4,820,550,R,1,<rshift>,1,1,395350,455
Controlli_TS_2_B,2,practice,R,4,3,620,550,R,1,<rshift>,1,1,396351,360
Controlli_TS_2_B,2,practice,R,5,1,620,350,R,1,<rshift>,1,1,397350,366
Controlli_TS_2_B,2,practice,R,6,3,620,550,R,1,<rshift>,1,1,398352,325
Controlli_TS_2_B,2,practice,R,7,1,620,350,R,1,<rshift>,1,1,399350,337
Controlli_TS_2_B,2,practice,R,8,3,620,550,R,1,<rshift>,1,1,400352,304
Controlli_TS_2_B,2,practice,R,9,1,620,350,R,1,<rshift>,1,1,401350,330
Controlli_TS_2_B,2,practice,R,10,4,820,550,P,0,<rshift>,1,0,402350,342
Controlli_TS_2_B,3,test,R,1,1,620,350,R,1,<rshift>,1,1,410561,494
Controlli_TS_2_B,3,test,R,2,1,620,350,P,0,NONE,0,1,411562,950
Controlli_TS_2_B,3,test,R,3,3,620,550,R,1,<rshift>,1,1,412561,469
Controlli_TS_2_B,3,test,R,4,4,820,550,R,1,<rshift>,1,1,413561,483
Controlli_TS_2_B,3,test,R,5,2,820,350,R,1,<rshift>,1,1,414561,382
Controlli_TS_2_B,3,test,R,6,3,620,550,R,1,<rshift>,1,1,415560,414
Controlli_TS_2_B,3,test,R,7,1,620,350,R,1,<rshift>,1,1,416560,384
Controlli_TS_2_B,3,test,R,8,4,820,550,P,0,NONE,0,1,417560,950
Controlli_TS_2_B,3,test,R,9,3,620,550,P,0,NONE,0,1,418560,950
Controlli_TS_2_B,3,test,R,10,3,620,550,R,1,<rshift>,1,1,419560,435
Controlli_TS_2_B,3,test,R,11,4,820,550,R,1,<rshift>,1,1,420561,546
Controlli_TS_2_B,3,test,R,12,3,620,550,R,1,<rshift>,1,1,421561,409
Controlli_TS_2_B,3,test,R,13,3,620,550,R,1,<rshift>,1,1,422560,398
Controlli_TS_2_B,3,test,R,14,3,620,550,R,1,<rshift>,1,1,423560,367
Controlli_TS_2_B,3,test,R,15,1,620,350,R,1,<rshift>,1,1,424560,403
Controlli_TS_2_B,3,test,R,16,3,620,550,R,1,<rshift>,1,1,425560,466
Controlli_TS_2_B,3,test,R,17,4,820,550,R,1,<rshift>,1,1,426562,349
Controlli_TS_2_B,3,test,R,18,1,620,350,P,0,NONE,0,1,427560,950
Controlli_TS_2_B,3,test,R,19,3,620,550,R,1,<rshift>,1,1,428560,470
Controlli_TS_2_B,3,test,R,20,1,620,350,R,1,<rshift>,1,1,429560,514
Controlli_TS_2_B,3,test,R,21,4,820,550,R,1,<rshift>,1,1,430562,505
Controlli_TS_2_B,3,test,R,22,3,620,550,R,1,<rshift>,1,1,431562,511
Controlli_TS_2_B,3,test,R,23,3,620,550,R,1,NONE,0,0,432560,950
Controlli_TS_2_B,3,test,R,24,2,820,350,P,0,NONE,0,1,433560,950
Controlli_TS_2_B,3,test,R,25,4,820,550,R,1,<rshift>,1,1,434560,379
Controlli_TS_2_B,3,test,R,26,1,620,350,R,1,<rshift>,1,1,435562,416
Controlli_TS_2_B,3,test,R,27,3,620,550,R,1,<rshift>,1,1,436560,315
Controlli_TS_2_B,3,test,R,28,4,820,550,R,1,<rshift>,1,1,437562,315
Controlli_TS_2_B,3,test,R,29,1,620,350,R,1,<rshift>,1,1,438561,356
Controlli_TS_2_B,3,test,R,30,2,820,350,R,1,<rshift>,1,1,439560,381
Controlli_TS_2_B,3,test,R,31,3,620,550,R,1,<rshift>,1,1,440560,317
Controlli_TS_2_B,3,test,R,32,4,820,550,R,1,<rshift>,1,1,441560,278
Controlli_TS_2_B,3,test,R,33,1,620,350,R,1,<rshift>,1,1,442560,342
Controlli_TS_2_B,3,test,R,34,2,820,350,R,1,<rshift>,1,1,443560,392
Controlli_TS_2_B,3,test,R,35,4,820,550,R,1,<rshift>,1,1,444562,505
Controlli_TS_2_B,3,test,R,36,3,620,550,R,1,<rshift>,1,1,445561,514
Controlli_TS_2_B,3,test,R,37,1,620,350,R,1,<rshift>,1,1,446562,465
Controlli_TS_2_B,3,test,R,38,1,620,350,R,1,<rshift>,1,1,447560,445
Controlli_TS_2_B,3,test,R,39,2,820,350,R,1,<rshift>,1,1,448560,405
Controlli_TS_2_B,3,test,R,40,1,620,350,R,1,<rshift>,1,1,449560,422
Controlli_TS_2_B,3,test,R,41,2,820,350,R,1,<rshift>,1,1,450562,569
Controlli_TS_2_B,3,test,R,42,1,620,350,R,1,<rshift>,1,1,451560,455
Controlli_TS_2_B,3,test,R,43,4,820,550,R,1,<rshift>,1,1,452560,503
Controlli_TS_2_B,3,test,R,44,4,820,550,P,0,NONE,0,1,453560,950
Controlli_TS_2_B,3,test,R,45,1,620,350,R,1,<rshift>,1,1,454560,487
Controlli_TS_2_B,3,test,R,46,2,820,350,R,1,<rshift>,1,1,455560,492
Controlli_TS_2_B,3,test,R,47,2,820,350,P,0,NONE,0,1,456560,950
Controlli_TS_2_B,3,test,R,48,2,820,350,R,1,<rshift>,1,1,457560,449
Controlli_TS_2_B,3,test,R,49,4,820,550,R,1,<rshift>,1,1,458561,424
Controlli_TS_2_B,3,test,R,50,4,820,550,R,1,<rshift>,1,1,459562,384
Controlli_TS_2_B,3,test,R,51,2,820,350,R,1,<rshift>,1,1,460561,405
Controlli_TS_2_B,3,test,R,52,4,820,550,R,1,<rshift>,1,1,461560,415
Controlli_TS_2_B,3,test,R,53,2,820,350,P,0,NONE,0,1,462560,950
Controlli_TS_2_B,3,test,R,54,2,820,350,R,1,<rshift>,1,1,463560,475
Controlli_TS_2_B,3,test,R,55,1,620,350,R,1,<rshift>,1,1,464560,378
Controlli_TS_2_B,3,test,R,56,4,820,550,R,1,<rshift>,1,1,465562,316
Controlli_TS_2_B,3,test,R,57,1,620,350,R,1,<rshift>,1,1,466562,353
Controlli_TS_2_B,3,test,R,58,4,820,550,P,0,<rshift>,1,0,467560,327
Controlli_TS_2_B,3,test,R,59,3,620,550,R,1,<rshift>,1,1,468560,494
Controlli_TS_2_B,3,test,R,60,2,820,350,R,1,<rshift>,1,1,469560,372
Controlli_TS_2_B,3,test,R,61,4,820,550,R,1,<rshift>,1,1,470560,574
Controlli_TS_2_B,3,test,R,62,3,620,550,R,1,<rshift>,1,1,471560,519
Controlli_TS_2_B,3,test,R,63,4,820,550,R,1,<rshift>,1,1,472560,479
Controlli_TS_2_B,3,test,R,64,2,820,350,R,1,<rshift>,1,1,473562,422
Controlli_TS_2_B,3,test,R,65,3,620,550,R,1,<rshift>,1,1,474561,553
Controlli_TS_2_B,3,test,R,66,4,820,550,R,1,<rshift>,1,1,475560,546
Controlli_TS_2_B,3,test,R,67,3,620,550,R,1,<rshift>,1,1,476562,505
Controlli_TS_2_B,3,test,R,68,2,820,350,P,0,NONE,0,1,477560,950
Controlli_TS_2_B,3,test,R,69,1,620,350,R,1,<rshift>,1,1,478560,549
Controlli_TS_2_B,3,test,R,70,4,820,550,R,1,<rshift>,1,1,479562,424
Controlli_TS_2_B,3,test,R,71,2,820,350,R,1,<rshift>,1,1,480561,470
Controlli_TS_2_B,3,test,R,72,4,820,550,R,1,<rshift>,1,1,481562,419
Controlli_TS_2_B,3,test,R,73,2,820,350,P,0,NONE,0,1,482562,950
Controlli_TS_2_B,3,test,R,74,1,620,350,R,1,<rshift>,1,1,483560,420
Controlli_TS_2_B,3,test,R,75,3,620,550,R,1,<rshift>,1,1,484561,394
Controlli_TS_2_B,3,test,R,76,2,820,350,R,1,<rshift>,1,1,485560,580
Controlli_TS_2_B,3,test,R,77,4,820,550,R,1,<rshift>,1,1,486561,396
Controlli_TS_2_B,3,test,R,78,4,820,550,P,0,NONE,0,1,487560,950
Controlli_TS_2_B,3,test,R,79,3,620,550,R,1,<rshift>,1,1,488560,416
Controlli_TS_2_B,3,test,R,80,3,620,550,R,1,<rshift>,1,1,489562,455
Controlli_TS_2_B,3,test,R,81,4,820,550,R,1,<rshift>,1,1,490560,392
Controlli_TS_2_B,3,test,R,82,4,820,550,R,1,<rshift>,1,1,491562,396
Controlli_TS_2_B,3,test,R,83,1,620,350,P,0,NONE,0,1,492560,950
Controlli_TS_2_B,3,test,R,84,4,820,550,R,1,<rshift>,1,1,493560,372
Controlli_TS_2_B,3,test,R,85,2,820,350,P,0,<rshift>,1,0,494562,390
Controlli_TS_2_B,3,test,R,86,4,820,550,R,1,NONE,0,0,495560,950
Controlli_TS_2_B,3,test,R,87,2,820,350,P,0,NONE,0,1,496560,950
Controlli_TS_2_B,3,test,R,88,3,620,550,P,0,<rshift>,1,0,497560,391
Controlli_TS_2_B,3,test,R,89,1,620,350,R,1,NONE,0,0,498560,950
Controlli_TS_2_B,3,test,R,90,4,820,550,R,1,<rshift>,1,1,499560,380
Controlli_TS_2_B,3,test,R,91,2,820,350,R,1,<rshift>,1,1,500560,582
Controlli_TS_2_B,3,test,R,92,1,620,350,R,1,<rshift>,1,1,501560,520
Controlli_TS_2_B,3,test,R,93,2,820,350,R,1,<rshift>,1,1,502560,478
Controlli_TS_2_B,3,test,R,94,4,820,550,R,1,<rshift>,1,1,503559,417
Controlli_TS_2_B,3,test,R,95,4,820,550,R,1,<rshift>,1,1,504560,568
Controlli_TS_2_B,3,test,R,96,4,820,550,R,1,NONE,0,0,505560,950
Controlli_TS_2_B,3,test,R,97,3,620,550,R,1,<rshift>,1,1,506560,574
Controlli_TS_2_B,3,test,R,98,3,620,550,R,1,<rshift>,1,1,507562,534
Controlli_TS_2_B,3,test,R,99,2,820,350,R,1,<rshift>,1,1,508560,453
Controlli_TS_2_B,3,test,R,100,4,820,550,R,1,<rshift>,1,1,509562,470
Controlli_TS_2_B,3,test,R,101,2,820,350,P,0,NONE,0,1,510560,950
Controlli_TS_2_B,3,test,R,102,3,620,550,R,1,<rshift>,1,1,511560,472
Controlli_TS_2_B,3,test,R,103,1,620,350,R,1,<rshift>,1,1,512562,524
Controlli_TS_2_B,3,test,R,104,2,820,350,R,1,NONE,0,0,513560,950
Controlli_TS_2_B,3,test,R,105,4,820,550,R,1,<rshift>,1,1,514560,759
Controlli_TS_2_B,3,test,R,106,3,620,550,P,0,<rshift>,1,0,515560,427
Controlli_TS_2_B,3,test,R,107,1,620,350,P,0,NONE,0,1,516562,950
Controlli_TS_2_B,3,test,R,108,4,820,550,R,1,<rshift>,1,1,517560,303
Controlli_TS_2_B,3,test,R,109,4,820,550,R,1,<rshift>,1,1,518560,360
Controlli_TS_2_B,3,test,R,110,4,820,550,R,1,<rshift>,1,1,519562,393
Controlli_TS_2_B,3,test,R,111,4,820,550,R,1,<rshift>,1,1,520560,787
Controlli_TS_2_B,3,test,R,112,2,820,350,R,1,NONE,0,0,521560,951
Controlli_TS_2_B,3,test,R,113,3,620,550,R,1,<rshift>,1,1,522562,580
Controlli_TS_2_B,3,test,R,114,2,820,350,R,1,<rshift>,1,1,523560,367
Controlli_TS_2_B,3,test,R,115,2,820,350,P,0,NONE,0,1,524560,950
Controlli_TS_2_B,3,test,R,116,2,820,350,R,1,<rshift>,1,1,525560,467
Controlli_TS_2_B,3,test,R,117,1,620,350,R,1,<rshift>,1,1,526560,411
Controlli_TS_2_B,3,test,R,118,1,620,350,R,1,<rshift>,1,1,527561,472
Controlli_TS_2_B,3,test,R,119,3,620,550,R,1,<rshift>,1,1,528560,400
Controlli_TS_2_B,3,test,R,120,2,820,350,R,1,<rshift>,1,1,529561,525
Controlli_TS_2_B,3,test,R,121,3,620,550,R,1,NONE,0,0,530560,950
Controlli_TS_2_B,3,test,R,122,2,820,350,R,1,<rshift>,1,1,531562,298
Controlli_TS_2_B,3,test,R,123,3,620,550,R,1,<rshift>,1,1,532562,400
Controlli_TS_2_B,3,test,R,124,4,820,550,P,0,NONE,0,1,533560,950
Controlli_TS_2_B,3,test,R,125,2,820,350,R,1,<rshift>,1,1,534562,388
Controlli_TS_2_B,3,test,R,126,4,820,550,R,1,<rshift>,1,1,535560,508
Controlli_TS_2_B,3,test,R,127,4,820,550,R,1,<rshift>,1,1,536560,525
Controlli_TS_2_B,3,test,R,128,3,620,550,R,1,<rshift>,1,1,537560,610
Controlli_TS_2_B,3,test,R,129,4,820,550,R,1,NONE,0,0,538562,950
Controlli_TS_2_B,3,test,R,130,3,620,550,R,1,<rshift>,1,1,539560,456
Controlli_TS_2_B,3,test,R,131,3,620,550,R,1,<rshift>,1,1,540560,391
Controlli_TS_2_B,3,test,R,132,3,620,550,P,0,<rshift>,1,0,541560,409
Controlli_TS_2_B,3,test,R,133,4,820,550,R,1,NONE,0,0,542562,950
Controlli_TS_2_B,3,test,R,134,1,620,350,R,1,<rshift>,1,1,543561,271
Controlli_TS_2_B,3,test,R,135,3,620,550,R,1,<rshift>,1,1,544560,398
Controlli_TS_2_B,3,test,R,136,2,820,350,R,1,<rshift>,1,1,545561,381
Controlli_TS_2_B,3,test,R,137,3,620,550,R,1,<rshift>,1,1,546560,302
Controlli_TS_2_B,3,test,R,138,3,620,550,R,1,<rshift>,1,1,547560,381
Controlli_TS_2_B,3,test,R,139,1,620,350,R,1,<rshift>,1,1,548562,786
Controlli_TS_2_B,3,test,R,140,4,820,550,R,1,<rshift>,1,1,549562,471
Controlli_TS_2_B,3,test,R,141,4,820,550,P,0,NONE,0,1,550562,950
Controlli_TS_2_B,3,test,R,142,2,820,350,P,0,NONE,0,1,551560,950
Controlli_TS_2_B,3,test,R,143,1,620,350,P,0,<rshift>,1,0,552560,309
Controlli_TS_2_B,3,test,R,144,2,820,350,P,0,NONE,0,1,553560,950
Controlli_TS_2_B,3,test,R,145,1,620,350,R,1,<rshift>,1,1,554562,548
Controlli_TS_2_B,3,test,R,146,3,620,550,R,1,<rshift>,1,1,555562,404
Controlli_TS_2_B,3,test,R,147,2,820,350,R,1,<rshift>,1,1,556560,417
Controlli_TS_2_B,3,test,R,148,4,820,550,R,1,<rshift>,1,1,557560,384
Controlli_TS_2_B,3,test,R,149,4,820,550,R,1,<rshift>,1,1,558562,397
Controlli_TS_2_B,3,test,R,150,1,620,350,R,1,<rshift>,1,1,559560,392
Controlli_TS_2_B,3,test,R,151,3,620,550,R,1,<rshift>,1,1,560560,346
Controlli_TS_2_B,3,test,R,152,3,620,550,P,0,NONE,0,1,561562,950
Controlli_TS_2_B,3,test,R,153,1,620,350,R,1,<rshift>,1,1,562560,320
Controlli_TS_2_B,3,test,R,154,4,820,550,P,0,<rshift>,1,0,563558,332
Controlli_TS_2_B,3,test,R,155,2,820,350,R,1,NONE,0,0,564560,950
Controlli_TS_2_B,3,test,R,156,4,820,550,R,1,<rshift>,1,1,565560,267
Controlli_TS_2_B,3,test,R,157,4,820,550,R,1,<rshift>,1,1,566561,354
Controlli_TS_2_B,3,test,R,158,1,620,350,R,1,<rshift>,1,1,567560,411
Controlli_TS_2_B,3,test,R,159,3,620,550,R,1,<rshift>,1,1,568561,548
Controlli_TS_2_B,3,test,R,160,1,620,350,R,1,<rshift>,1,1,569561,506
Controlli_TS_2_B,3,test,R,161,4,820,550,R,1,<rshift>,1,1,570560,383
Controlli_TS_2_B,3,test,R,162,1,620,350,R,1,<rshift>,1,1,571562,389
Controlli_TS_2_B,3,test,R,163,2,820,350,R,1,<rshift>,1,1,572560,328
Controlli_TS_2_B,3,test,R,164,1,620,350,R,1,<rshift>,1,1,573560,386
Controlli_TS_2_B,3,test,R,165,3,620,550,R,1,<rshift>,1,1,574561,647
Controlli_TS_2_B,3,test,R,166,3,620,550,R,1,NONE,0,0,575560,950
Controlli_TS_2_B,3,test,R,167,1,620,350,R,1,<rshift>,1,1,576560,371
Controlli_TS_2_B,3,test,R,168,3,620,550,R,1,<rshift>,1,1,577562,373
Controlli_TS_2_B,3,test,R,169,4,820,550,R,1,<rshift>,1,1,578562,293
Controlli_TS_2_B,3,test,R,170,1,620,350,R,1,<rshift>,1,1,579560,397
Controlli_TS_2_B,3,test,R,171,4,820,550,P,0,NONE,0,1,580560,950
Controlli_TS_2_B,3,test,R,172,3,620,550,R,1,<rshift>,1,1,581560,459
Controlli_TS_2_B,3,test,R,173,1,620,350,R,1,<rshift>,1,1,582560,552
Controlli_TS_2_B,3,test,R,174,3,620,550,R,1,<rshift>,1,1,583560,485
Controlli_TS_2_B,3,test,R,175,1,620,350,R,1,<rshift>,1,1,584560,617
Controlli_TS_2_B,3,test,R,176,1,620,350,R,1,NONE,0,0,585560,950
Controlli_TS_2_B,3,test,R,177,3,620,550,R,1,<rshift>,1,1,586560,336
Controlli_TS_2_B,3,test,R,178,4,820,550,R,1,<rshift>,1,1,587563,345
Controlli_TS_2_B,3,test,R,179,3,620,550,R,1,<rshift>,1,1,588560,490
Controlli_TS_2_B,3,test,R,180,3,620,550,R,1,<rshift>,1,1,589560,429
Controlli_TS_2_B,3,test,R,181,1,620,350,P,0,NONE,0,1,590560,950
Controlli_TS_2_B,3,test,R,182,3,620,550,R,1,<rshift>,1,1,591560,398
Controlli_TS_2_B,3,test,R,183,3,620,550,R,1,<rshift>,1,1,592560,416
Controlli_TS_2_B,3,test,R,184,2,820,350,P,0,NONE,0,1,593560,950
Controlli_TS_2_B,3,test,R,185,3,620,550,R,1,<rshift>,1,1,594560,376
Controlli_TS_2_B,3,test,R,186,3,620,550,R,1,<rshift>,1,1,595560,656
Controlli_TS_2_B,3,test,R,187,3,620,550,P,0,NONE,0,1,596562,950
Controlli_TS_2_B,3,test,R,188,1,620,350,R,1,<rshift>,1,1,597560,387
Controlli_TS_2_B,3,test,R,189,2,820,350,R,1,<rshift>,1,1,598560,652
Controlli_TS_2_B,3,test,R,190,2,820,350,P,0,NONE,0,1,599560,950
Controlli_TS_2_B,3,test,R,191,3,620,550,R,1,<rshift>,1,1,600560,363
Controlli_TS_2_B,3,test,R,192,3,620,550,R,1,NONE,0,0,601560,950
Controlli_TS_2_B,3,test,R,193,4,820,550,R,1,<rshift>,1,1,602560,411
Controlli_TS_2_B,3,test,R,194,2,820,350,R,1,<rshift>,1,1,603560,391
Controlli_TS_2_B,3,test,R,195,3,620,550,R,1,<rshift>,1,1,604560,440
Controlli_TS_2_B,3,test,R,196,4,820,550,R,1,<rshift>,1,1,605562,374
Controlli_TS_2_B,3,test,R,197,2,820,350,R,1,<rshift>,1,1,606562,396
Controlli_TS_2_B,3,test,R,198,2,820,350,R,1,<rshift>,1,1,607560,392
Controlli_TS_2_B,3,test,R,199,2,820,350,R,1,<rshift>,1,1,608560,382
Controlli_TS_2_B,3,test,R,200,3,620,550,R,1,<rshift>,1,1,609560,652
Controlli_TS_2_B,3,test,R,201,2,820,350,R,1,NONE,0,0,610560,950
Controlli_TS_2_B,3,test,R,202,3,620,550,R,1,<rshift>,1,1,611560,317
Controlli_TS_2_B,3,test,R,203,4,820,550,R,1,<rshift>,1,1,612561,409
Controlli_TS_2_B,3,test,R,204,2,820,350,R,1,<rshift>,1,1,613560,360
Controlli_TS_2_B,3,test,R,205,4,820,550,R,1,<rshift>,1,1,614560,515
Controlli_TS_2_B,3,test,R,206,2,820,350,R,1,NONE,0,0,615560,950
Controlli_TS_2_B,3,test,R,207,4,820,550,P,0,<rshift>,1,0,616560,283
Controlli_TS_2_B,3,test,R,208,4,820,550,R,1,NONE,0,0,617560,950
Controlli_TS_2_B,3,test,R,209,4,820,550,P,0,<rshift>,1,0,618560,315
Controlli_TS_2_B,3,test,R,210,3,620,550,R,1,NONE,0,0,619562,950
Controlli_TS_2_B,3,test,R,211,4,820,550,R,1,NONE,0,0,620560,950
Controlli_TS_2_B,3,test,R,212,1,620,350,R,1,<rshift>,1,1,621560,395
Controlli_TS_2_B,3,test,R,213,1,620,350,P,0,NONE,0,1,622560,950
Controlli_TS_2_B,3,test,R,214,1,620,350,P,0,NONE,0,1,623558,950
Controlli_TS_2_B,3,test,R,215,1,620,350,R,1,<rshift>,1,1,624560,583
Controlli_TS_2_B,3,test,R,216,4,820,550,R,1,<rshift>,1,1,625560,408
Controlli_TS_2_B,3,test,R,217,1,620,350,P,0,<rshift>,1,0,626560,369
Controlli_TS_2_B,3,test,R,218,3,620,550,P,0,NONE,0,1,627560,950
Controlli_TS_2_B,3,test,R,219,3,620,550,P,0,NONE,0,1,628560,950
Controlli_TS_2_B,3,test,R,220,4,820,550,P,0,NONE,0,1,629560,950
Controlli_TS_2_B,3,test,R,221,1,620,350,R,1,<rshift>,1,1,630560,563
Controlli_TS_2_B,3,test,R,222,1,620,350,R,1,<rshift>,1,1,631560,532
Controlli_TS_2_B,3,test,R,223,3,620,550,R,1,<rshift>,1,1,632560,422
Controlli_TS_2_B,3,test,R,224,4,820,550,R,1,<rshift>,1,1,633561,376
Controlli_TS_2_B,3,test,R,225,3,620,550,R,1,NONE,0,0,634562,950
Controlli_TS_2_B,3,test,R,226,4,820,550,P,0,<rshift>,1,0,635560,308
Controlli_TS_2_B,3,test,R,227,4,820,550,P,0,NONE,0,1,636562,950
Controlli_TS_2_B,3,test,R,228,2,820,350,P,0,NONE,0,1,637562,950
Controlli_TS_2_B,3,test,R,229,3,620,550,R,1,<rshift>,1,1,638560,350
Controlli_TS_2_B,3,test,R,230,2,820,350,R,1,<rshift>,1,1,639560,531
Controlli_TS_2_B,3,test,R,231,4,820,550,R,1,<rshift>,1,1,640560,482
Controlli_TS_2_B,3,test,R,232,2,820,350,R,1,<rshift>,1,1,641560,427
Controlli_TS_2_B,3,test,R,233,1,620,350,R,1,<rshift>,1,1,642560,563
Controlli_TS_2_B,3,test,R,234,3,620,550,P,0,NONE,0,1,643560,950
Controlli_TS_2_B,3,test,R,235,3,620,550,R,1,NONE,0,0,644560,950
Controlli_TS_2_B,3,test,R,236,1,620,350,P,0,NONE,0,1,645560,950
Controlli_TS_2_B,3,test,R,237,1,620,350,R,1,<rshift>,1,1,646562,560
Controlli_TS_2_B,3,test,R,238,1,620,350,R,1,<rshift>,1,1,647560,359
Controlli_TS_2_B,3,test,R,239,1,620,350,R,1,<rshift>,1,1,648560,398
Controlli_TS_2_B,3,test,R,240,1,620,350,P,0,NONE,0,1,649560,950
Controlli_TS_2_B,3,test,R,241,1,620,350,R,1,<rshift>,1,1,650560,440
Controlli_TS_2_B,3,test,R,242,4,820,550,R,1,<rshift>,1,1,651560,602
Controlli_TS_2_B,3,test,R,243,3,620,550,R,1,<rshift>,1,1,652560,509
Controlli_TS_2_B,3,test,R,244,3,620,550,R,1,<rshift>,1,1,653560,612
Controlli_TS_2_B,3,test,R,245,4,820,550,R,1,<rshift>,1,1,654560,469
Controlli_TS_2_B,3,test,R,246,4,820,550,P,0,NONE,0,1,655561,950
Controlli_TS_2_B,3,test,R,247,2,820,350,P,0,NONE,0,1,656560,950
Controlli_TS_2_B,3,test,R,248,2,820,350,P,0,NONE,0,1,657560,950
Controlli_TS_2_B,3,test,R,249,4,820,550,P,0,NONE,0,1,658560,950
Controlli_TS_2_B,3,test,R,250,2,820,350,R,1,<rshift>,1,1,659560,506
Controlli_TS_2_B,3,test,R,251,4,820,550,R,1,<rshift>,1,1,660560,408
Controlli_TS_2_B,3,test,R,252,3,620,550,R,1,<rshift>,1,1,661560,386
Controlli_TS_2_B,3,test,R,253,1,620,350,R,1,<rshift>,1,1,662562,368
Controlli_TS_2_B,3,test,R,254,2,820,350,R,1,<rshift>,1,1,663560,387
Controlli_TS_2_B,3,test,R,255,4,820,550,R,1,<rshift>,1,1,664560,556
Controlli_TS_2_B,3,test,R,256,3,620,550,P,0,NONE,0,1,665561,950
Controlli_TS_2_B,3,test,R,257,3,620,550,R,1,<rshift>,1,1,666560,573
Controlli_TS_2_B,3,test,R,258,2,820,350,R,1,<rshift>,1,1,667560,476
Controlli_TS_2_B,3,test,R,259,2,820,350,R,1,<rshift>,1,1,668560,423
Controlli_TS_2_B,3,test,R,260,3,620,550,R,1,<rshift>,1,1,669560,509
Controlli_TS_2_B,3,test,R,261,1,620,350,P,0,NONE,0,1,670560,951
Controlli_TS_2_B,3,test,R,262,1,620,350,R,1,<rshift>,1,1,671560,576
Controlli_TS_2_B,3,test,R,263,3,620,550,P,0,NONE,0,1,672560,950
Controlli_TS_2_B,3,test,R,264,1,620,350,R,1,<rshift>,1,1,673560,556
Controlli_TS_2_B,3,test,R,265,3,620,550,R,1,<rshift>,1,1,674560,445
Controlli_TS_2_B,3,test,R,266,1,620,350,R,1,<rshift>,1,1,675562,425
Controlli_TS_2_B,3,test,R,267,4,820,550,R,1,<rshift>,1,1,676560,331
Controlli_TS_2_B,3,test,R,268,2,820,350,R,1,<rshift>,1,1,677560,335
Controlli_TS_2_B,3,test,R,269,2,820,350,R,1,<rshift>,1,1,678560,365
Controlli_TS_2_B,3,test,R,270,4,820,550,R,1,<rshift>,1,1,679562,465
Controlli_TS_2_B,3,test,R,271,2,820,350,R,1,<rshift>,1,1,680560,351
Controlli_TS_2_B,3,test,R,272,1,620,350,R,1,<rshift>,1,1,681561,405
Controlli_TS_2_B,3,test,R,273,2,820,350,R,1,<rshift>,1,1,682560,485
Controlli_TS_2_B,3,test,R,274,2,820,350,R,1,<rshift>,1,1,683561,455
Controlli_TS_2_B,3,test,R,275,3,620,550,R,1,<rshift>,1,1,684562,548
Controlli_TS_2_B,3,test,R,276,2,820,350,R,1,<rshift>,1,1,685560,380
Controlli_TS_2_B,3,test,R,277,1,620,350,R,1,<rshift>,1,1,686560,440
Controlli_TS_2_B,3,test,R,278,3,620,550,P,0,NONE,0,1,687560,950
Controlli_TS_2_B,3,test,R,279,3,620,550,P,0,NONE,0,1,688560,950
Controlli_TS_2_B,3,test,R,280,4,820,550,R,1,<rshift>,1,1,689562,419
Controlli_TS_2_B,3,test,R,281,2,820,350,R,1,<rshift>,1,1,690560,463
Controlli_TS_2_B,3,test,R,282,1,620,350,R,1,<rshift>,1,1,691560,410
Controlli_TS_2_B,3,test,R,283,4,820,550,P,0,NONE,0,1,692560,950
Controlli_TS_2_B,3,test,R,284,2,820,350,R,1,<rshift>,1,1,693560,479
Controlli_TS_2_B,3,test,R,285,3,620,550,R,1,<rshift>,1,1,694560,469
Controlli_TS_2_B,3,test,R,286,3,620,550,R,1,<rshift>,1,1,695561,411
Controlli_TS_2_B,3,test,R,287,3,620,550,R,1,<rshift>,1,1,696561,374
Controlli_TS_2_B,3,test,R,288,3,620,550,P,0,NONE,0,1,697560,950
Controlli_TS_2_B,3,test,R,289,3,620,550,R,1,<rshift>,1,1,698560,426
Controlli_TS_2_B,3,test,R,290,1,620,350,P,0,NONE,0,1,699560,950
Controlli_TS_2_B,3,test,R,291,3,620,550,R,1,<rshift>,1,1,700560,463
Controlli_TS_2_B,3,test,R,292,1,620,350,R,1,<rshift>,1,1,701560,449
Controlli_TS_2_B,3,test,R,293,2,820,350,R,1,<rshift>,1,1,702560,422
Controlli_TS_2_B,3,test,R,294,2,820,350,R,1,<rshift>,1,1,703560,433
Controlli_TS_2_B,3,test,R,295,3,620,550,R,1,<rshift>,1,1,704560,537
Controlli_TS_2_B,3,test,R,296,2,820,350,R,1,<rshift>,1,1,705560,386
Controlli_TS_2_B,3,test,R,297,1,620,350,P,0,NONE,0,1,706560,950
Controlli_TS_2_B,3,test,R,298,1,620,350,R,1,<rshift>,1,1,707560,518
Controlli_TS_2_B,3,test,R,299,4,820,550,R,1,<rshift>,1,1,708560,760
Controlli_TS_2_B,3,test,R,300,2,820,350,R,1,<rshift>,1,1,709560,505
