subnum,block,type,correctresponse,trial,choice,x,y,stim,present,response,responded,corr,starttime,rt
Control_TS_26B,0,practice,P,1,1,620,350,P,1,<rshift>,1,1,18980,764
Control_TS_26B,0,practice,P,2,2,820,350,P,1,<rshift>,1,1,19978,422
Control_TS_26B,0,practice,P,3,1,620,350,P,1,<rshift>,1,1,20978,385
Control_TS_26B,0,practice,P,4,2,820,350,R,0,NONE,0,1,21978,950
Control_TS_26B,0,practice,P,5,2,820,350,R,0,NONE,0,1,22978,950
Control_TS_26B,0,practice,P,6,3,620,550,P,1,<rshift>,1,1,23978,381
Control_TS_26B,0,practice,P,7,3,620,550,P,1,<rshift>,1,1,24978,395
Control_TS_26B,0,practice,P,8,1,620,350,P,1,<rshift>,1,1,25980,276
Control_TS_26B,0,practice,P,9,4,820,550,P,1,<rshift>,1,1,26978,318
Control_TS_26B,0,practice,P,10,3,620,550,P,1,<rshift>,1,1,27978,515
Control_TS_26B,1,test,P,1,3,620,550,P,1,<rshift>,1,1,43093,558
Control_TS_26B,1,test,P,2,3,620,550,P,1,<rshift>,1,1,44092,330
Control_TS_26B,1,test,P,3,4,820,550,R,0,NONE,0,1,45092,950
Control_TS_26B,1,test,P,4,1,620,350,P,1,<rshift>,1,1,46092,300
Control_TS_26B,1,test,P,5,3,620,550,P,1,<rshift>,1,1,47092,340
Control_TS_26B,1,test,P,6,1,620,350,R,0,NONE,0,1,48093,950
Control_TS_26B,1,test,P,7,3,620,550,R,0,<rshift>,1,0,49092,342
Control_TS_26B,1,test,P,8,1,620,350,P,1,<rshift>,1,1,50092,406
Control_TS_26B,1,test,P,9,1,620,350,P,1,<rshift>,1,1,51092,403
Control_TS_26B,1,test,P,10,4,820,550,P,1,<rshift>,1,1,52092,447
Control_TS_26B,1,test,P,11,4,820,550,R,0,NONE,0,1,53092,950
Control_TS_26B,1,test,P,12,2,820,350,P,1,<rshift>,1,1,54092,367
Control_TS_26B,1,test,P,13,3,620,550,P,1,<rshift>,1,1,55092,427
Control_TS_26B,1,test,P,14,3,620,550,P,1,<rshift>,1,1,56092,370
Control_TS_26B,1,test,P,15,3,620,550,P,1,<rshift>,1,1,57092,417
Control_TS_26B,1,test,P,16,2,820,350,P,1,<rshift>,1,1,58092,317
Control_TS_26B,1,test,P,17,3,620,550,P,1,<rshift>,1,1,59092,363
Control_TS_26B,1,test,P,18,3,620,550,P,1,<rshift>,1,1,60092,348
Control_TS_26B,1,test,P,19,1,620,350,P,1,<rshift>,1,1,61092,320
Control_TS_26B,1,test,P,20,1,620,350,P,1,<rshift>,1,1,62092,344
Control_TS_26B,1,test,P,21,3,620,550,P,1,<rshift>,1,1,63092,425
Control_TS_26B,1,test,P,22,4,820,550,P,1,<rshift>,1,1,64092,462
Control_TS_26B,1,test,P,23,1,620,350,P,1,<rshift>,1,1,65092,330
Control_TS_26B,1,test,P,24,4,820,550,R,0,NONE,0,1,66092,950
Control_TS_26B,1,test,P,25,2,820,350,P,1,<rshift>,1,1,67092,278
Control_TS_26B,1,test,P,26,4,820,550,R,0,NONE,0,1,68092,950
Control_TS_26B,1,test,P,27,1,620,350,R,0,<rshift>,1,0,69092,312
Control_TS_26B,1,test,P,28,3,620,550,R,0,<rshift>,1,0,70092,427
Control_TS_26B,1,test,P,29,4,820,550,R,0,NONE,0,1,71092,950
Control_TS_26B,1,test,P,30,1,620,350,P,1,<rshift>,1,1,72092,404
Control_TS_26B,1,test,P,31,2,820,350,P,1,<rshift>,1,1,73092,454
Control_TS_26B,1,test,P,32,1,620,350,P,1,<rshift>,1,1,74092,455
Control_TS_26B,1,test,P,33,3,620,550,R,0,NONE,0,1,75092,950
Control_TS_26B,1,test,P,34,2,820,350,P,1,<rshift>,1,1,76092,384
Control_TS_26B,1,test,P,35,2,820,350,P,1,<rshift>,1,1,77092,409
Control_TS_26B,1,test,P,36,2,820,350,R,0,NONE,0,1,78092,950
Control_TS_26B,1,test,P,37,3,620,550,P,1,<rshift>,1,1,79092,293
Control_TS_26B,1,test,P,38,1,620,350,P,1,<rshift>,1,1,80092,411
Control_TS_26B,1,test,P,39,3,620,550,P,1,<rshift>,1,1,81092,466
Control_TS_26B,1,test,P,40,1,620,350,P,1,<rshift>,1,1,82092,345
Control_TS_26B,1,test,P,41,3,620,550,P,1,<rshift>,1,1,83092,349
Control_TS_26B,1,test,P,42,3,620,550,P,1,<rshift>,1,1,84092,359
Control_TS_26B,1,test,P,43,1,620,350,P,1,<rshift>,1,1,85092,415
Control_TS_26B,1,test,P,44,4,820,550,P,1,<rshift>,1,1,86092,426
Control_TS_26B,1,test,P,45,2,820,350,P,1,<rshift>,1,1,87092,346
Control_TS_26B,1,test,P,46,1,620,350,P,1,<rshift>,1,1,88092,328
Control_TS_26B,1,test,P,47,3,620,550,P,1,<rshift>,1,1,89092,414
Control_TS_26B,1,test,P,48,2,820,350,P,1,<rshift>,1,1,90092,350
Control_TS_26B,1,test,P,49,2,820,350,R,0,<rshift>,1,0,91092,332
Control_TS_26B,1,test,P,50,1,620,350,P,1,<rshift>,1,1,92092,408
Control_TS_26B,1,test,P,51,4,820,550,P,1,<rshift>,1,1,93092,463
Control_TS_26B,1,test,P,52,1,620,350,P,1,<rshift>,1,1,94092,449
Control_TS_26B,1,test,P,53,2,820,350,P,1,<rshift>,1,1,95092,427
Control_TS_26B,1,test,P,54,4,820,550,P,1,<rshift>,1,1,96092,376
Control_TS_26B,1,test,P,55,1,620,350,P,1,<rshift>,1,1,97092,369
Control_TS_26B,1,test,P,56,4,820,550,P,1,<rshift>,1,1,98092,386
Control_TS_26B,1,test,P,57,3,620,550,P,1,<rshift>,1,1,99092,439
Control_TS_26B,1,test,P,58,4,820,550,P,1,<rshift>,1,1,100092,415
Control_TS_26B,1,test,P,59,1,620,350,P,1,<rshift>,1,1,101092,387
Control_TS_26B,1,test,P,60,1,620,350,P,1,<rshift>,1,1,102092,391
Control_TS_26B,1,test,P,61,2,820,350,P,1,<rshift>,1,1,103093,309
Control_TS_26B,1,test,P,62,4,820,550,P,1,<rshift>,1,1,104092,342
Control_TS_26B,1,test,P,63,1,620,350,P,1,<rshift>,1,1,105092,300
Control_TS_26B,1,test,P,64,1,620,350,R,0,<rshift>,1,0,106092,325
Control_TS_26B,1,test,P,65,3,620,550,P,1,<rshift>,1,1,107092,346
Control_TS_26B,1,test,P,66,4,820,550,R,0,NONE,0,1,108092,950
Control_TS_26B,1,test,P,67,1,620,350,P,1,<rshift>,1,1,109092,459
Control_TS_26B,1,test,P,68,1,620,350,P,1,<rshift>,1,1,110092,431
Control_TS_26B,1,test,P,69,3,620,550,P,1,<rshift>,1,1,111092,477
Control_TS_26B,1,test,P,70,2,820,350,P,1,<rshift>,1,1,112092,452
Control_TS_26B,1,test,P,71,3,620,550,R,0,NONE,0,1,113092,950
Control_TS_26B,1,test,P,72,2,820,350,R,0,NONE,0,1,114092,950
Control_TS_26B,1,test,P,73,1,620,350,P,1,<rshift>,1,1,115092,356
Control_TS_26B,1,test,P,74,2,820,350,R,0,NONE,0,1,116092,950
Control_TS_26B,1,test,P,75,1,620,350,R,0,NONE,0,1,117092,950
Control_TS_26B,1,test,P,76,1,620,350,P,1,<rshift>,1,1,118092,394
Control_TS_26B,1,test,P,77,3,620,550,P,1,<rshift>,1,1,119092,458
Control_TS_26B,1,test,P,78,4,820,550,R,0,<rshift>,1,0,120092,413
Control_TS_26B,1,test,P,79,4,820,550,P,1,<rshift>,1,1,121092,515
Control_TS_26B,1,test,P,80,1,620,350,P,1,<rshift>,1,1,122092,549
Control_TS_26B,1,test,P,81,4,820,550,P,1,<rshift>,1,1,123092,369
Control_TS_26B,1,test,P,82,1,620,350,P,1,<rshift>,1,1,124092,426
Control_TS_26B,1,test,P,83,3,620,550,P,1,<rshift>,1,1,125092,515
Control_TS_26B,1,test,P,84,2,820,350,P,1,<rshift>,1,1,126092,366
Control_TS_26B,1,test,P,85,3,620,550,R,0,<rshift>,1,0,127092,331
Control_TS_26B,1,test,P,86,3,620,550,P,1,<rshift>,1,1,128092,412
Control_TS_26B,1,test,P,87,2,820,350,P,1,<rshift>,1,1,129092,463
Control_TS_26B,1,test,P,88,3,620,550,P,1,<rshift>,1,1,130092,348
Control_TS_26B,1,test,P,89,4,820,550,P,1,<rshift>,1,1,131092,461
Control_TS_26B,1,test,P,90,4,820,550,P,1,<rshift>,1,1,132092,456
Control_TS_26B,1,test,P,91,4,820,550,P,1,<rshift>,1,1,133092,382
Control_TS_26B,1,test,P,92,1,620,350,P,1,<rshift>,1,1,134092,365
Control_TS_26B,1,test,P,93,1,620,350,P,1,<rshift>,1,1,135092,401
Control_TS_26B,1,test,P,94,4,820,550,P,1,<rshift>,1,1,136092,386
Control_TS_26B,1,test,P,95,3,620,550,P,1,<rshift>,1,1,137092,362
Control_TS_26B,1,test,P,96,2,820,350,P,1,<rshift>,1,1,138092,444
Control_TS_26B,1,test,P,97,3,620,550,P,1,<rshift>,1,1,139092,379
Control_TS_26B,1,test,P,98,1,620,350,R,0,<rshift>,1,0,140092,361
Control_TS_26B,1,test,P,99,3,620,550,R,0,<rshift>,1,0,141092,369
Control_TS_26B,1,test,P,100,4,820,550,P,1,NONE,0,0,142092,950
Control_TS_26B,1,test,P,101,3,620,550,P,1,<rshift>,1,1,143092,420
Control_TS_26B,1,test,P,102,2,820,350,P,1,<rshift>,1,1,144092,346
Control_TS_26B,1,test,P,103,4,820,550,R,0,NONE,0,1,145092,950
Control_TS_26B,1,test,P,104,1,620,350,P,1,<rshift>,1,1,146092,450
Control_TS_26B,1,test,P,105,4,820,550,P,1,<rshift>,1,1,147092,532
Control_TS_26B,1,test,P,106,2,820,350,P,1,<rshift>,1,1,148092,419
Control_TS_26B,1,test,P,107,2,820,350,P,1,<rshift>,1,1,149092,388
Control_TS_26B,1,test,P,108,4,820,550,R,0,NONE,0,1,150093,950
Control_TS_26B,1,test,P,109,3,620,550,P,1,<rshift>,1,1,151092,395
Control_TS_26B,1,test,P,110,3,620,550,P,1,<rshift>,1,1,152092,466
Control_TS_26B,1,test,P,111,3,620,550,P,1,<rshift>,1,1,153092,453
Control_TS_26B,1,test,P,112,1,620,350,P,1,<rshift>,1,1,154092,482
Control_TS_26B,1,test,P,113,3,620,550,P,1,<rshift>,1,1,155092,453
Control_TS_26B,1,test,P,114,2,820,350,P,1,<rshift>,1,1,156092,404
Control_TS_26B,1,test,P,115,4,820,550,P,1,<rshift>,1,1,157092,481
Control_TS_26B,1,test,P,116,3,620,550,P,1,<rshift>,1,1,158092,515
Control_TS_26B,1,test,P,117,1,620,350,P,1,<rshift>,1,1,159092,436
Control_TS_26B,1,test,P,118,2,820,350,R,0,NONE,0,1,160092,950
Control_TS_26B,1,test,P,119,3,620,550,P,1,<rshift>,1,1,161092,375
Control_TS_26B,1,test,P,120,1,620,350,R,0,NONE,0,1,162092,950
Control_TS_26B,1,test,P,121,4,820,550,P,1,<rshift>,1,1,163092,307
Control_TS_26B,1,test,P,122,1,620,350,R,0,NONE,0,1,164092,950
Control_TS_26B,1,test,P,123,1,620,350,P,1,<rshift>,1,1,165092,429
Control_TS_26B,1,test,P,124,4,820,550,P,1,<rshift>,1,1,166092,753
Control_TS_26B,1,test,P,125,4,820,550,P,1,<rshift>,1,1,167092,686
Control_TS_26B,1,test,P,126,1,620,350,P,1,<rshift>,1,1,168092,644
Control_TS_26B,1,test,P,127,3,620,550,P,1,<rshift>,1,1,169092,546
Control_TS_26B,1,test,P,128,4,820,550,P,1,<rshift>,1,1,170092,446
Control_TS_26B,1,test,P,129,4,820,550,P,1,<rshift>,1,1,171092,458
Control_TS_26B,1,test,P,130,3,620,550,P,1,<rshift>,1,1,172092,465
Control_TS_26B,1,test,P,131,3,620,550,P,1,<rshift>,1,1,173092,456
Control_TS_26B,1,test,P,132,3,620,550,P,1,<rshift>,1,1,174092,470
Control_TS_26B,1,test,P,133,4,820,550,R,0,NONE,0,1,175092,950
Control_TS_26B,1,test,P,134,2,820,350,P,1,<rshift>,1,1,176092,421
Control_TS_26B,1,test,P,135,4,820,550,R,0,NONE,0,1,177092,950
Control_TS_26B,1,test,P,136,1,620,350,P,1,<rshift>,1,1,178092,412
Control_TS_26B,1,test,P,137,4,820,550,P,1,<rshift>,1,1,179092,485
Control_TS_26B,1,test,P,138,4,820,550,P,1,<rshift>,1,1,180092,494
Control_TS_26B,1,test,P,139,4,820,550,R,0,NONE,0,1,181092,950
Control_TS_26B,1,test,P,140,2,820,350,P,1,<rshift>,1,1,182092,364
Control_TS_26B,1,test,P,141,1,620,350,P,1,<rshift>,1,1,183092,483
Control_TS_26B,1,test,P,142,2,820,350,R,0,NONE,0,1,184092,950
Control_TS_26B,1,test,P,143,2,820,350,P,1,<rshift>,1,1,185092,536
Control_TS_26B,1,test,P,144,3,620,550,P,1,<rshift>,1,1,186092,451
Control_TS_26B,1,test,P,145,4,820,550,P,1,<rshift>,1,1,187092,467
Control_TS_26B,1,test,P,146,3,620,550,P,1,<rshift>,1,1,188092,444
Control_TS_26B,1,test,P,147,2,820,350,R,0,NONE,0,1,189092,950
Control_TS_26B,1,test,P,148,2,820,350,P,1,NONE,0,0,190092,950
Control_TS_26B,1,test,P,149,2,820,350,P,1,<rshift>,1,1,191092,364
Control_TS_26B,1,test,P,150,3,620,550,P,1,<rshift>,1,1,192092,427
Control_TS_26B,1,test,P,151,2,820,350,P,1,<rshift>,1,1,193092,388
Control_TS_26B,1,test,P,152,4,820,550,P,1,<rshift>,1,1,194092,480
Control_TS_26B,1,test,P,153,2,820,350,P,1,<rshift>,1,1,195092,446
Control_TS_26B,1,test,P,154,4,820,550,P,1,<rshift>,1,1,196092,422
Control_TS_26B,1,test,P,155,2,820,350,P,1,<rshift>,1,1,197092,608
Control_TS_26B,1,test,P,156,1,620,350,R,0,<rshift>,1,0,198092,385
Control_TS_26B,1,test,P,157,3,620,550,P,1,<rshift>,1,1,199092,465
Control_TS_26B,1,test,P,158,3,620,550,P,1,<rshift>,1,1,200092,442
Control_TS_26B,1,test,P,159,4,820,550,P,1,<rshift>,1,1,201092,450
Control_TS_26B,1,test,P,160,3,620,550,P,1,<rshift>,1,1,202092,435
Control_TS_26B,1,test,P,161,1,620,350,P,1,<rshift>,1,1,203092,515
Control_TS_26B,1,test,P,162,2,820,350,P,1,<rshift>,1,1,204092,558
Control_TS_26B,1,test,P,163,2,820,350,R,0,NONE,0,1,205092,950
Control_TS_26B,1,test,P,164,3,620,550,P,1,<rshift>,1,1,206092,349
Control_TS_26B,1,test,P,165,2,820,350,P,1,<rshift>,1,1,207092,476
Control_TS_26B,1,test,P,166,2,820,350,P,1,<rshift>,1,1,208092,515
Control_TS_26B,1,test,P,167,4,820,550,P,1,<rshift>,1,1,209092,515
Control_TS_26B,1,test,P,168,3,620,550,P,1,<rshift>,1,1,210092,418
Control_TS_26B,1,test,P,169,2,820,350,P,1,<rshift>,1,1,211092,382
Control_TS_26B,1,test,P,170,4,820,550,R,0,<rshift>,1,0,212092,477
Control_TS_26B,1,test,P,171,3,620,550,P,1,<rshift>,1,1,213092,400
Control_TS_26B,1,test,P,172,4,820,550,P,1,<rshift>,1,1,214092,468
Control_TS_26B,1,test,P,173,3,620,550,P,1,<rshift>,1,1,215092,482
Control_TS_26B,1,test,P,174,1,620,350,R,0,NONE,0,1,216092,950
Control_TS_26B,1,test,P,175,2,820,350,P,1,<rshift>,1,1,217092,330
Control_TS_26B,1,test,P,176,3,620,550,P,1,<rshift>,1,1,218092,585
Control_TS_26B,1,test,P,177,4,820,550,P,1,<rshift>,1,1,219092,434
Control_TS_26B,1,test,P,178,1,620,350,P,1,<rshift>,1,1,220092,473
Control_TS_26B,1,test,P,179,3,620,550,P,1,<rshift>,1,1,221092,419
Control_TS_26B,1,test,P,180,3,620,550,R,0,NONE,0,1,222092,950
Control_TS_26B,1,test,P,181,2,820,350,P,1,<rshift>,1,1,223092,364
Control_TS_26B,1,test,P,182,1,620,350,P,1,<rshift>,1,1,224092,478
Control_TS_26B,1,test,P,183,3,620,550,P,1,<rshift>,1,1,225092,570
Control_TS_26B,1,test,P,184,4,820,550,P,1,<rshift>,1,1,226092,400
Control_TS_26B,1,test,P,185,1,620,350,R,0,NONE,0,1,227092,950
Control_TS_26B,1,test,P,186,4,820,550,P,1,<rshift>,1,1,228092,360
Control_TS_26B,1,test,P,187,3,620,550,R,0,<rshift>,1,0,229092,334
Control_TS_26B,1,test,P,188,1,620,350,P,1,<rshift>,1,1,230092,392
Control_TS_26B,1,test,P,189,3,620,550,P,1,<rshift>,1,1,231092,564
Control_TS_26B,1,test,P,190,2,820,350,P,1,<rshift>,1,1,232092,399
Control_TS_26B,1,test,P,191,2,820,350,R,0,NONE,0,1,233092,950
Control_TS_26B,1,test,P,192,3,620,550,P,1,<rshift>,1,1,234092,372
Control_TS_26B,1,test,P,193,3,620,550,P,1,<rshift>,1,1,235092,416
Control_TS_26B,1,test,P,194,4,820,550,P,1,<rshift>,1,1,236092,426
Control_TS_26B,1,test,P,195,3,620,550,P,1,<rshift>,1,1,237092,434
Control_TS_26B,1,test,P,196,3,620,550,P,1,<rshift>,1,1,238092,439
Control_TS_26B,1,test,P,197,1,620,350,P,1,<rshift>,1,1,239092,413
Control_TS_26B,1,test,P,198,1,620,350,P,1,<rshift>,1,1,240092,404
Control_TS_26B,1,test,P,199,1,620,350,R,0,<rshift>,1,0,241092,339
Control_TS_26B,1,test,P,200,2,820,350,P,1,<rshift>,1,1,242092,370
Control_TS_26B,1,test,P,201,3,620,550,P,1,<rshift>,1,1,243092,409
Control_TS_26B,1,test,P,202,1,620,350,P,1,<rshift>,1,1,244092,496
Control_TS_26B,1,test,P,203,2,820,350,P,1,<rshift>,1,1,245092,429
Control_TS_26B,1,test,P,204,1,620,350,P,1,<rshift>,1,1,246092,905
Control_TS_26B,1,test,P,205,3,620,550,P,1,<rshift>,1,1,247093,471
Control_TS_26B,1,test,P,206,3,620,550,P,1,<rshift>,1,1,248092,378
Control_TS_26B,1,test,P,207,2,820,350,P,1,<rshift>,1,1,249092,417
Control_TS_26B,1,test,P,208,2,820,350,P,1,<rshift>,1,1,250092,426
Control_TS_26B,1,test,P,209,2,820,350,P,1,<rshift>,1,1,251092,374
Control_TS_26B,1,test,P,210,4,820,550,R,0,NONE,0,1,252092,950
Control_TS_26B,1,test,P,211,2,820,350,P,1,<rshift>,1,1,253092,482
Control_TS_26B,1,test,P,212,1,620,350,P,1,<rshift>,1,1,254092,461
Control_TS_26B,1,test,P,213,3,620,550,P,1,<rshift>,1,1,255092,490
Control_TS_26B,1,test,P,214,4,820,550,P,1,<rshift>,1,1,256092,515
Control_TS_26B,1,test,P,215,4,820,550,P,1,<rshift>,1,1,257092,447
Control_TS_26B,1,test,P,216,1,620,350,P,1,<rshift>,1,1,258092,448
Control_TS_26B,1,test,P,217,4,820,550,P,1,<rshift>,1,1,259092,378
Control_TS_26B,1,test,P,218,4,820,550,P,1,<rshift>,1,1,260092,387
Control_TS_26B,1,test,P,219,4,820,550,P,1,<rshift>,1,1,261092,395
Control_TS_26B,1,test,P,220,2,820,350,P,1,<rshift>,1,1,262092,425
Control_TS_26B,1,test,P,221,4,820,550,P,1,<rshift>,1,1,263092,374
Control_TS_26B,1,test,P,222,4,820,550,R,0,<rshift>,1,0,264092,373
Control_TS_26B,1,test,P,223,4,820,550,R,0,NONE,0,1,265092,950
Control_TS_26B,1,test,P,224,2,820,350,R,0,NONE,0,1,266092,950
Control_TS_26B,1,test,P,225,2,820,350,R,0,NONE,0,1,267092,950
Control_TS_26B,1,test,P,226,4,820,550,R,0,NONE,0,1,268092,950
Control_TS_26B,1,test,P,227,4,820,550,P,1,<rshift>,1,1,269092,537
Control_TS_26B,1,test,P,228,2,820,350,R,0,NONE,0,1,270092,950
Control_TS_26B,1,test,P,229,1,620,350,P,1,<rshift>,1,1,271092,383
Control_TS_26B,1,test,P,230,2,820,350,P,1,<rshift>,1,1,272092,746
Control_TS_26B,1,test,P,231,3,620,550,P,1,<rshift>,1,1,273092,418
Control_TS_26B,1,test,P,232,2,820,350,P,1,<rshift>,1,1,274092,361
Control_TS_26B,1,test,P,233,4,820,550,P,1,<rshift>,1,1,275092,425
Control_TS_26B,1,test,P,234,4,820,550,P,1,<rshift>,1,1,276092,445
Control_TS_26B,1,test,P,235,2,820,350,P,1,<rshift>,1,1,277092,395
Control_TS_26B,1,test,P,236,4,820,550,P,1,<rshift>,1,1,278092,428
Control_TS_26B,1,test,P,237,3,620,550,P,1,<rshift>,1,1,279092,433
Control_TS_26B,1,test,P,238,2,820,350,R,0,NONE,0,1,280092,950
Control_TS_26B,1,test,P,239,1,620,350,P,1,<rshift>,1,1,281092,359
Control_TS_26B,1,test,P,240,4,820,550,P,1,<rshift>,1,1,282092,433
Control_TS_26B,1,test,P,241,2,820,350,P,1,<rshift>,1,1,283092,432
Control_TS_26B,1,test,P,242,4,820,550,P,1,<rshift>,1,1,284092,488
Control_TS_26B,1,test,P,243,4,820,550,R,0,<rshift>,1,0,285092,487
Control_TS_26B,1,test,P,244,4,820,550,R,0,NONE,0,1,286092,950
Control_TS_26B,1,test,P,245,4,820,550,R,0,NONE,0,1,287092,950
Control_TS_26B,1,test,P,246,3,620,550,P,1,<rshift>,1,1,288092,484
Control_TS_26B,1,test,P,247,4,820,550,P,1,<rshift>,1,1,289092,474
Control_TS_26B,1,test,P,248,3,620,550,R,0,<rshift>,1,0,290092,474
Control_TS_26B,1,test,P,249,1,620,350,P,1,<rshift>,1,1,291092,407
Control_TS_26B,1,test,P,250,3,620,550,P,1,<rshift>,1,1,292092,854
Control_TS_26B,1,test,P,251,2,820,350,P,1,<rshift>,1,1,293092,482
Control_TS_26B,1,test,P,252,2,820,350,P,1,<rshift>,1,1,294092,453
Control_TS_26B,1,test,P,253,2,820,350,R,0,NONE,0,1,295092,950
Control_TS_26B,1,test,P,254,4,820,550,P,1,<rshift>,1,1,296092,467
Control_TS_26B,1,test,P,255,2,820,350,P,1,<rshift>,1,1,297092,456
Control_TS_26B,1,test,P,256,2,820,350,R,0,NONE,0,1,298092,950
Control_TS_26B,1,test,P,257,3,620,550,P,1,<rshift>,1,1,299092,428
Control_TS_26B,1,test,P,258,2,820,350,P,1,<rshift>,1,1,300092,515
Control_TS_26B,1,test,P,259,2,820,350,R,0,NONE,0,1,301092,950
Control_TS_26B,1,test,P,260,3,620,550,P,1,<rshift>,1,1,302092,422
Control_TS_26B,1,test,P,261,3,620,550,P,1,<rshift>,1,1,303092,479
Control_TS_26B,1,test,P,262,1,620,350,P,1,<rshift>,1,1,304092,515
Control_TS_26B,1,test,P,263,1,620,350,P,1,<rshift>,1,1,305092,515
Control_TS_26B,1,test,P,264,1,620,350,P,1,<rshift>,1,1,306092,441
Control_TS_26B,1,test,P,265,3,620,550,R,0,NONE,0,1,307092,950
Control_TS_26B,1,test,P,266,3,620,550,P,1,<rshift>,1,1,308092,414
Control_TS_26B,1,test,P,267,2,820,350,P,1,<rshift>,1,1,309092,354
Control_TS_26B,1,test,P,268,3,620,550,P,1,<rshift>,1,1,310092,396
Control_TS_26B,1,test,P,269,3,620,550,P,1,<rshift>,1,1,311092,405
Control_TS_26B,1,test,P,270,4,820,550,P,1,<rshift>,1,1,312092,379
Control_TS_26B,1,test,P,271,4,820,550,R,0,NONE,0,1,313092,950
Control_TS_26B,1,test,P,272,3,620,550,P,1,<rshift>,1,1,314092,362
Control_TS_26B,1,test,P,273,3,620,550,P,1,<rshift>,1,1,315092,410
Control_TS_26B,1,test,P,274,3,620,550,P,1,<rshift>,1,1,316092,473
Control_TS_26B,1,test,P,275,1,620,350,P,1,<rshift>,1,1,317092,426
Control_TS_26B,1,test,P,276,4,820,550,P,1,<rshift>,1,1,318092,378
Control_TS_26B,1,test,P,277,4,820,550,P,1,<rshift>,1,1,319092,352
Control_TS_26B,1,test,P,278,4,820,550,P,1,<rshift>,1,1,320092,390
Control_TS_26B,1,test,P,279,4,820,550,P,1,<rshift>,1,1,321092,414
Control_TS_26B,1,test,P,280,1,620,350,P,1,<rshift>,1,1,322092,425
Control_TS_26B,1,test,P,281,1,620,350,P,1,<rshift>,1,1,323092,380
Control_TS_26B,1,test,P,282,4,820,550,P,1,<rshift>,1,1,324092,426
Control_TS_26B,1,test,P,283,3,620,550,R,0,<rshift>,1,0,325092,323
Control_TS_26B,1,test,P,284,1,620,350,P,1,<rshift>,1,1,326092,332
Control_TS_26B,1,test,P,285,1,620,350,P,1,<rshift>,1,1,327092,448
Control_TS_26B,1,test,P,286,1,620,350,R,0,<rshift>,1,0,328092,515
Control_TS_26B,1,test,P,287,1,620,350,P,1,<rshift>,1,1,329092,522
Control_TS_26B,1,test,P,288,1,620,350,P,1,<rshift>,1,1,330092,398
Control_TS_26B,1,test,P,289,4,820,550,P,1,<rshift>,1,1,331092,370
Control_TS_26B,1,test,P,290,4,820,550,P,1,<rshift>,1,1,332092,379
Control_TS_26B,1,test,P,291,2,820,350,P,1,<rshift>,1,1,333092,322
Control_TS_26B,1,test,P,292,4,820,550,P,1,<rshift>,1,1,334092,475
Control_TS_26B,1,test,P,293,2,820,350,P,1,<rshift>,1,1,335092,357
Control_TS_26B,1,test,P,294,3,620,550,P,1,<rshift>,1,1,336092,472
Control_TS_26B,1,test,P,295,1,620,350,P,1,<rshift>,1,1,337092,288
Control_TS_26B,1,test,P,296,4,820,550,P,1,<rshift>,1,1,338092,383
Control_TS_26B,1,test,P,297,2,820,350,P,1,<rshift>,1,1,339092,346
Control_TS_26B,1,test,P,298,1,620,350,P,1,<rshift>,1,1,340092,312
Control_TS_26B,1,test,P,299,3,620,550,P,1,<rshift>,1,1,341092,371
Control_TS_26B,1,test,P,300,1,620,350,P,1,<rshift>,1,1,342092,355
Control_TS_26B,2,practice,R,1,1,620,350,R,1,NONE,0,0,372986,950
Control_TS_26B,2,practice,R,2,1,620,350,R,1,<rshift>,1,1,374983,473
Control_TS_26B,2,practice,R,3,2,820,350,R,1,<rshift>,1,1,375485,590
Control_TS_26B,2,practice,R,4,1,620,350,R,1,<rshift>,1,1,376090,557
Control_TS_26B,2,practice,R,5,2,820,350,R,1,<rshift>,1,1,376986,289
Control_TS_26B,2,practice,R,6,2,820,350,P,0,<rshift>,1,0,377986,335
Control_TS_26B,2,practice,R,7,4,820,550,R,1,<rshift>,1,1,379383,517
Control_TS_26B,2,practice,R,8,4,820,550,R,1,<rshift>,1,1,379985,460
Control_TS_26B,2,practice,R,9,2,820,350,P,0,NONE,0,1,380986,950
Control_TS_26B,2,practice,R,10,4,820,550,R,1,<rshift>,1,1,381985,334
Control_TS_26B,3,test,R,1,1,620,350,R,1,NONE,0,0,392688,951
Control_TS_26B,3,test,R,2,3,620,550,R,1,<rshift>,1,1,393688,380
Control_TS_26B,3,test,R,3,4,820,550,R,1,<rshift>,1,1,394688,350
Control_TS_26B,3,test,R,4,4,820,550,R,1,<rshift>,1,1,395688,357
Control_TS_26B,3,test,R,5,3,620,550,R,1,<rshift>,1,1,396688,379
Control_TS_26B,3,test,R,6,3,620,550,R,1,<rshift>,1,1,397688,343
Control_TS_26B,3,test,R,7,4,820,550,R,1,<rshift>,1,1,398688,392
Control_TS_26B,3,test,R,8,2,820,350,R,1,<rshift>,1,1,399688,375
Control_TS_26B,3,test,R,9,3,620,550,R,1,<rshift>,1,1,400688,332
Control_TS_26B,3,test,R,10,4,820,550,P,0,<rshift>,1,0,401688,306
Control_TS_26B,3,test,R,11,3,620,550,P,0,NONE,0,1,402688,950
Control_TS_26B,3,test,R,12,4,820,550,R,1,<rshift>,1,1,403688,419
Control_TS_26B,3,test,R,13,4,820,550,R,1,<rshift>,1,1,404688,434
Control_TS_26B,3,test,R,14,4,820,550,P,0,NONE,0,1,405688,950
Control_TS_26B,3,test,R,15,1,620,350,R,1,<rshift>,1,1,406688,302
Control_TS_26B,3,test,R,16,2,820,350,R,1,<rshift>,1,1,407688,333
Control_TS_26B,3,test,R,17,3,620,550,R,1,<rshift>,1,1,408688,343
Control_TS_26B,3,test,R,18,3,620,550,R,1,<rshift>,1,1,409688,398
Control_TS_26B,3,test,R,19,3,620,550,R,1,<rshift>,1,1,410688,396
Control_TS_26B,3,test,R,20,2,820,350,P,0,<rshift>,1,0,411688,317
Control_TS_26B,3,test,R,21,1,620,350,R,1,<rshift>,1,1,412688,290
Control_TS_26B,3,test,R,22,3,620,550,R,1,<rshift>,1,1,413688,318
Control_TS_26B,3,test,R,23,1,620,350,R,1,<rshift>,1,1,414688,385
Control_TS_26B,3,test,R,24,3,620,550,R,1,<rshift>,1,1,415688,317
Control_TS_26B,3,test,R,25,1,620,350,R,1,<rshift>,1,1,416688,385
Control_TS_26B,3,test,R,26,2,820,350,R,1,<rshift>,1,1,417688,558
Control_TS_26B,3,test,R,27,4,820,550,R,1,<rshift>,1,1,418688,418
Control_TS_26B,3,test,R,28,4,820,550,R,1,<rshift>,1,1,419688,361
Control_TS_26B,3,test,R,29,4,820,550,P,0,NONE,0,1,420688,950
Control_TS_26B,3,test,R,30,1,620,350,R,1,<rshift>,1,1,421688,404
Control_TS_26B,3,test,R,31,1,620,350,P,0,<rshift>,1,0,422688,403
Control_TS_26B,3,test,R,32,4,820,550,R,1,<rshift>,1,1,423688,356
Control_TS_26B,3,test,R,33,2,820,350,R,1,<rshift>,1,1,424688,413
Control_TS_26B,3,test,R,34,4,820,550,R,1,<rshift>,1,1,425688,396
Control_TS_26B,3,test,R,35,3,620,550,R,1,<rshift>,1,1,426688,370
Control_TS_26B,3,test,R,36,1,620,350,R,1,<rshift>,1,1,427688,419
Control_TS_26B,3,test,R,37,1,620,350,R,1,<rshift>,1,1,428688,434
Control_TS_26B,3,test,R,38,4,820,550,R,1,<rshift>,1,1,429688,289
Control_TS_26B,3,test,R,39,3,620,550,R,1,<rshift>,1,1,430689,347
Control_TS_26B,3,test,R,40,3,620,550,R,1,<rshift>,1,1,431688,399
Control_TS_26B,3,test,R,41,2,820,350,P,0,<rshift>,1,0,432688,325
Control_TS_26B,3,test,R,42,3,620,550,R,1,<rshift>,1,1,433688,387
Control_TS_26B,3,test,R,43,2,820,350,R,1,<rshift>,1,1,434688,470
Control_TS_26B,3,test,R,44,4,820,550,R,1,<rshift>,1,1,435688,379
Control_TS_26B,3,test,R,45,2,820,350,R,1,<rshift>,1,1,436688,408
Control_TS_26B,3,test,R,46,3,620,550,P,0,<rshift>,1,0,437688,309
Control_TS_26B,3,test,R,47,3,620,550,R,1,NONE,0,0,438688,950
Control_TS_26B,3,test,R,48,1,620,350,P,0,<rshift>,1,0,439688,298
Control_TS_26B,3,test,R,49,4,820,550,P,0,NONE,0,1,440688,950
Control_TS_26B,3,test,R,50,4,820,550,R,1,<rshift>,1,1,441688,493
Control_TS_26B,3,test,R,51,2,820,350,R,1,<rshift>,1,1,442688,305
Control_TS_26B,3,test,R,52,2,820,350,R,1,<rshift>,1,1,443688,360
Control_TS_26B,3,test,R,53,1,620,350,R,1,<rshift>,1,1,444688,470
Control_TS_26B,3,test,R,54,4,820,550,R,1,<rshift>,1,1,445688,450
Control_TS_26B,3,test,R,55,3,620,550,R,1,<rshift>,1,1,446688,420
Control_TS_26B,3,test,R,56,4,820,550,R,1,<rshift>,1,1,447688,381
Control_TS_26B,3,test,R,57,4,820,550,R,1,<rshift>,1,1,448688,368
Control_TS_26B,3,test,R,58,1,620,350,P,0,<rshift>,1,0,449688,325
Control_TS_26B,3,test,R,59,2,820,350,R,1,<rshift>,1,1,450688,330
Control_TS_26B,3,test,R,60,2,820,350,P,0,NONE,0,1,451688,950
Control_TS_26B,3,test,R,61,4,820,550,P,0,NONE,0,1,452688,950
Control_TS_26B,3,test,R,62,4,820,550,R,1,<rshift>,1,1,453688,360
Control_TS_26B,3,test,R,63,3,620,550,P,0,NONE,0,1,454688,950
Control_TS_26B,3,test,R,64,1,620,350,R,1,<rshift>,1,1,455688,277
Control_TS_26B,3,test,R,65,4,820,550,R,1,<rshift>,1,1,456688,406
Control_TS_26B,3,test,R,66,3,620,550,R,1,<rshift>,1,1,457688,586
Control_TS_26B,3,test,R,67,4,820,550,R,1,<rshift>,1,1,458688,386
Control_TS_26B,3,test,R,68,3,620,550,R,1,<rshift>,1,1,459688,411
Control_TS_26B,3,test,R,69,2,820,350,R,1,<rshift>,1,1,460688,411
Control_TS_26B,3,test,R,70,2,820,350,R,1,<rshift>,1,1,461688,368
Control_TS_26B,3,test,R,71,3,620,550,P,0,<rshift>,1,0,462688,358
Control_TS_26B,3,test,R,72,1,620,350,R,1,<rshift>,1,1,463688,337
Control_TS_26B,3,test,R,73,3,620,550,R,1,<rshift>,1,1,464688,374
Control_TS_26B,3,test,R,74,1,620,350,R,1,<rshift>,1,1,465688,642
Control_TS_26B,3,test,R,75,2,820,350,R,1,<rshift>,1,1,466688,375
Control_TS_26B,3,test,R,76,2,820,350,R,1,<rshift>,1,1,467688,347
Control_TS_26B,3,test,R,77,2,820,350,R,1,<rshift>,1,1,468688,317
Control_TS_26B,3,test,R,78,1,620,350,R,1,<rshift>,1,1,469688,292
Control_TS_26B,3,test,R,79,2,820,350,R,1,<rshift>,1,1,470688,272
Control_TS_26B,3,test,R,80,3,620,550,R,1,<rshift>,1,1,471688,402
Control_TS_26B,3,test,R,81,1,620,350,R,1,<rshift>,1,1,472689,296
Control_TS_26B,3,test,R,82,4,820,550,R,1,<rshift>,1,1,473688,315
Control_TS_26B,3,test,R,83,1,620,350,P,0,<rshift>,1,0,474688,321
Control_TS_26B,3,test,R,84,3,620,550,R,1,<rshift>,1,1,475688,354
Control_TS_26B,3,test,R,85,3,620,550,R,1,<rshift>,1,1,476688,380
Control_TS_26B,3,test,R,86,2,820,350,R,1,<rshift>,1,1,477688,311
Control_TS_26B,3,test,R,87,1,620,350,P,0,<rshift>,1,0,478688,359
Control_TS_26B,3,test,R,88,4,820,550,P,0,<rshift>,1,0,479688,332
Control_TS_26B,3,test,R,89,3,620,550,P,0,NONE,0,1,480688,950
Control_TS_26B,3,test,R,90,2,820,350,P,0,NONE,0,1,481688,950
Control_TS_26B,3,test,R,91,2,820,350,R,1,<rshift>,1,1,482688,376
Control_TS_26B,3,test,R,92,1,620,350,R,1,<rshift>,1,1,483688,392
Control_TS_26B,3,test,R,93,3,620,550,R,1,<rshift>,1,1,484688,406
Control_TS_26B,3,test,R,94,4,820,550,P,0,<rshift>,1,0,485688,365
Control_TS_26B,3,test,R,95,3,620,550,R,1,<rshift>,1,1,486688,450
Control_TS_26B,3,test,R,96,2,820,350,R,1,<rshift>,1,1,487688,617
Control_TS_26B,3,test,R,97,2,820,350,P,0,<rshift>,1,0,488688,286
Control_TS_26B,3,test,R,98,1,620,350,R,1,<rshift>,1,1,489688,316
Control_TS_26B,3,test,R,99,3,620,550,R,1,<rshift>,1,1,490688,354
Control_TS_26B,3,test,R,100,2,820,350,R,1,<rshift>,1,1,491688,338
Control_TS_26B,3,test,R,101,1,620,350,R,1,<rshift>,1,1,492688,426
Control_TS_26B,3,test,R,102,4,820,550,P,0,NONE,0,1,493688,950
Control_TS_26B,3,test,R,103,1,620,350,R,1,<rshift>,1,1,494688,316
Control_TS_26B,3,test,R,104,4,820,550,R,1,<rshift>,1,1,495688,409
Control_TS_26B,3,test,R,105,3,620,550,R,1,<rshift>,1,1,496688,404
Control_TS_26B,3,test,R,106,1,620,350,R,1,<rshift>,1,1,497688,412
Control_TS_26B,3,test,R,107,4,820,550,R,1,<rshift>,1,1,498688,363
Control_TS_26B,3,test,R,108,1,620,350,R,1,<rshift>,1,1,499688,383
Control_TS_26B,3,test,R,109,4,820,550,R,1,<rshift>,1,1,500688,405
Control_TS_26B,3,test,R,110,4,820,550,R,1,<rshift>,1,1,501688,409
Control_TS_26B,3,test,R,111,2,820,350,R,1,<rshift>,1,1,502688,323
Control_TS_26B,3,test,R,112,2,820,350,R,1,NONE,0,0,503688,950
Control_TS_26B,3,test,R,113,4,820,550,P,0,NONE,0,1,504688,950
Control_TS_26B,3,test,R,114,1,620,350,R,1,<rshift>,1,1,505688,320
Control_TS_26B,3,test,R,115,2,820,350,P,0,<rshift>,1,0,506688,284
Control_TS_26B,3,test,R,116,4,820,550,R,1,<rshift>,1,1,507688,383
Control_TS_26B,3,test,R,117,1,620,350,P,0,NONE,0,1,508688,950
Control_TS_26B,3,test,R,118,4,820,550,R,1,<rshift>,1,1,509688,343
Control_TS_26B,3,test,R,119,3,620,550,R,1,<rshift>,1,1,510688,432
Control_TS_26B,3,test,R,120,1,620,350,P,0,<rshift>,1,0,511688,392
Control_TS_26B,3,test,R,121,3,620,550,P,0,NONE,0,1,512688,950
Control_TS_26B,3,test,R,122,2,820,350,R,1,<rshift>,1,1,513688,290
Control_TS_26B,3,test,R,123,2,820,350,R,1,<rshift>,1,1,514688,385
Control_TS_26B,3,test,R,124,2,820,350,P,0,<rshift>,1,0,515688,346
Control_TS_26B,3,test,R,125,4,820,550,R,1,<rshift>,1,1,516688,328
Control_TS_26B,3,test,R,126,2,820,350,R,1,<rshift>,1,1,517688,481
Control_TS_26B,3,test,R,127,4,820,550,R,1,<rshift>,1,1,518688,417
Control_TS_26B,3,test,R,128,4,820,550,R,1,<rshift>,1,1,519688,386
Control_TS_26B,3,test,R,129,2,820,350,R,1,<rshift>,1,1,520688,340
Control_TS_26B,3,test,R,130,3,620,550,R,1,<rshift>,1,1,521688,338
Control_TS_26B,3,test,R,131,2,820,350,P,0,<rshift>,1,0,522688,309
Control_TS_26B,3,test,R,132,1,620,350,R,1,<rshift>,1,1,523688,295
Control_TS_26B,3,test,R,133,1,620,350,R,1,<rshift>,1,1,524688,358
Control_TS_26B,3,test,R,134,4,820,550,R,1,<rshift>,1,1,525688,332
Control_TS_26B,3,test,R,135,2,820,350,R,1,<rshift>,1,1,526688,424
Control_TS_26B,3,test,R,136,4,820,550,R,1,<rshift>,1,1,527688,443
Control_TS_26B,3,test,R,137,4,820,550,R,1,<rshift>,1,1,528688,426
Control_TS_26B,3,test,R,138,2,820,350,R,1,<rshift>,1,1,529688,380
Control_TS_26B,3,test,R,139,3,620,550,R,1,<rshift>,1,1,530688,384
Control_TS_26B,3,test,R,140,3,620,550,R,1,<rshift>,1,1,531688,375
Control_TS_26B,3,test,R,141,1,620,350,R,1,<rshift>,1,1,532688,336
Control_TS_26B,3,test,R,142,1,620,350,R,1,<rshift>,1,1,533688,409
Control_TS_26B,3,test,R,143,3,620,550,R,1,<rshift>,1,1,534688,396
Control_TS_26B,3,test,R,144,3,620,550,P,0,<rshift>,1,0,535688,368
Control_TS_26B,3,test,R,145,1,620,350,R,1,<rshift>,1,1,536688,496
Control_TS_26B,3,test,R,146,1,620,350,R,1,<rshift>,1,1,537688,387
Control_TS_26B,3,test,R,147,4,820,550,R,1,<rshift>,1,1,538688,473
Control_TS_26B,3,test,R,148,4,820,550,R,1,<rshift>,1,1,539688,339
Control_TS_26B,3,test,R,149,4,820,550,P,0,<rshift>,1,0,540688,393
Control_TS_26B,3,test,R,150,2,820,350,R,1,NONE,0,0,541688,950
Control_TS_26B,3,test,R,151,2,820,350,R,1,<rshift>,1,1,542688,347
Control_TS_26B,3,test,R,152,3,620,550,R,1,<rshift>,1,1,543688,434
Control_TS_26B,3,test,R,153,1,620,350,P,0,<rshift>,1,0,544688,435
Control_TS_26B,3,test,R,154,2,820,350,P,0,<rshift>,1,0,545688,330
Control_TS_26B,3,test,R,155,2,820,350,P,0,NONE,0,1,546688,950
Control_TS_26B,3,test,R,156,4,820,550,R,1,<rshift>,1,1,547688,515
Control_TS_26B,3,test,R,157,3,620,550,R,1,<rshift>,1,1,548688,392
Control_TS_26B,3,test,R,158,1,620,350,R,1,<rshift>,1,1,549688,448
Control_TS_26B,3,test,R,159,2,820,350,R,1,<rshift>,1,1,550688,342
Control_TS_26B,3,test,R,160,1,620,350,R,1,<rshift>,1,1,551688,394
Control_TS_26B,3,test,R,161,2,820,350,P,0,<rshift>,1,0,552688,372
Control_TS_26B,3,test,R,162,4,820,550,R,1,<rshift>,1,1,553688,380
Control_TS_26B,3,test,R,163,3,620,550,R,1,<rshift>,1,1,554688,411
Control_TS_26B,3,test,R,164,1,620,350,R,1,<rshift>,1,1,555688,370
Control_TS_26B,3,test,R,165,4,820,550,P,0,<rshift>,1,0,556688,368
Control_TS_26B,3,test,R,166,1,620,350,R,1,<rshift>,1,1,557688,317
Control_TS_26B,3,test,R,167,2,820,350,R,1,<rshift>,1,1,558688,411
Control_TS_26B,3,test,R,168,1,620,350,P,0,<rshift>,1,0,559688,402
Control_TS_26B,3,test,R,169,4,820,550,R,1,<rshift>,1,1,560688,528
Control_TS_26B,3,test,R,170,2,820,350,R,1,<rshift>,1,1,561688,677
Control_TS_26B,3,test,R,171,3,620,550,R,1,<rshift>,1,1,562688,534
Control_TS_26B,3,test,R,172,1,620,350,R,1,<rshift>,1,1,563688,450
Control_TS_26B,3,test,R,173,1,620,350,P,0,NONE,0,1,564688,950
Control_TS_26B,3,test,R,174,2,820,350,P,0,<rshift>,1,0,565688,287
Control_TS_26B,3,test,R,175,2,820,350,R,1,<rshift>,1,1,566688,388
Control_TS_26B,3,test,R,176,3,620,550,R,1,<rshift>,1,1,567688,446
Control_TS_26B,3,test,R,177,3,620,550,R,1,<rshift>,1,1,568688,549
Control_TS_26B,3,test,R,178,4,820,550,R,1,<rshift>,1,1,569688,374
Control_TS_26B,3,test,R,179,1,620,350,R,1,<rshift>,1,1,570688,543
Control_TS_26B,3,test,R,180,1,620,350,P,0,<rshift>,1,0,571688,410
Control_TS_26B,3,test,R,181,1,620,350,R,1,<rshift>,1,1,572688,373
Control_TS_26B,3,test,R,182,4,820,550,R,1,<rshift>,1,1,573688,494
Control_TS_26B,3,test,R,183,2,820,350,R,1,<rshift>,1,1,574688,374
Control_TS_26B,3,test,R,184,1,620,350,R,1,<rshift>,1,1,575688,536
Control_TS_26B,3,test,R,185,3,620,550,R,1,<rshift>,1,1,576688,445
Control_TS_26B,3,test,R,186,1,620,350,P,0,<rshift>,1,0,577688,413
Control_TS_26B,3,test,R,187,3,620,550,P,0,NONE,0,1,578688,950
Control_TS_26B,3,test,R,188,2,820,350,R,1,<rshift>,1,1,579688,433
Control_TS_26B,3,test,R,189,3,620,550,R,1,<rshift>,1,1,580688,451
Control_TS_26B,3,test,R,190,2,820,350,R,1,<rshift>,1,1,581688,428
Control_TS_26B,3,test,R,191,2,820,350,P,0,NONE,0,1,582688,950
Control_TS_26B,3,test,R,192,1,620,350,R,1,<rshift>,1,1,583688,279
Control_TS_26B,3,test,R,193,3,620,550,R,1,<rshift>,1,1,584688,476
Control_TS_26B,3,test,R,194,1,620,350,R,1,<rshift>,1,1,585688,317
Control_TS_26B,3,test,R,195,1,620,350,R,1,<rshift>,1,1,586688,305
Control_TS_26B,3,test,R,196,1,620,350,R,1,<rshift>,1,1,587688,326
Control_TS_26B,3,test,R,197,1,620,350,R,1,<rshift>,1,1,588688,390
Control_TS_26B,3,test,R,198,4,820,550,R,1,<rshift>,1,1,589688,444
Control_TS_26B,3,test,R,199,3,620,550,R,1,<rshift>,1,1,590688,344
Control_TS_26B,3,test,R,200,1,620,350,R,1,<rshift>,1,1,591688,362
Control_TS_26B,3,test,R,201,4,820,550,P,0,<rshift>,1,0,592688,590
Control_TS_26B,3,test,R,202,3,620,550,R,1,<rshift>,1,1,593688,424
Control_TS_26B,3,test,R,203,4,820,550,R,1,<rshift>,1,1,594688,461
Control_TS_26B,3,test,R,204,4,820,550,R,1,<rshift>,1,1,595688,403
Control_TS_26B,3,test,R,205,1,620,350,R,1,<rshift>,1,1,596688,416
Control_TS_26B,3,test,R,206,4,820,550,R,1,<rshift>,1,1,597688,400
Control_TS_26B,3,test,R,207,1,620,350,P,0,<rshift>,1,0,598688,338
Control_TS_26B,3,test,R,208,1,620,350,R,1,<rshift>,1,1,599688,427
Control_TS_26B,3,test,R,209,3,620,550,R,1,<rshift>,1,1,600688,515
Control_TS_26B,3,test,R,210,2,820,350,P,0,NONE,0,1,601688,950
Control_TS_26B,3,test,R,211,4,820,550,R,1,<rshift>,1,1,602688,379
Control_TS_26B,3,test,R,212,2,820,350,R,1,<rshift>,1,1,603688,377
Control_TS_26B,3,test,R,213,2,820,350,P,0,<rshift>,1,0,604688,384
Control_TS_26B,3,test,R,214,4,820,550,P,0,<rshift>,1,0,605688,353
Control_TS_26B,3,test,R,215,3,620,550,R,1,<rshift>,1,1,606688,419
Control_TS_26B,3,test,R,216,3,620,550,R,1,<rshift>,1,1,607688,483
Control_TS_26B,3,test,R,217,2,820,350,R,1,<rshift>,1,1,608688,426
Control_TS_26B,3,test,R,218,1,620,350,R,1,<rshift>,1,1,609688,381
Control_TS_26B,3,test,R,219,1,620,350,R,1,<rshift>,1,1,610688,333
Control_TS_26B,3,test,R,220,3,620,550,R,1,NONE,0,0,611688,950
Control_TS_26B,3,test,R,221,1,620,350,R,1,<rshift>,1,1,612688,301
Control_TS_26B,3,test,R,222,2,820,350,P,0,NONE,0,1,613688,950
Control_TS_26B,3,test,R,223,1,620,350,R,1,<rshift>,1,1,614688,224
Control_TS_26B,3,test,R,224,1,620,350,R,1,<rshift>,1,1,615688,498
Control_TS_26B,3,test,R,225,3,620,550,R,1,<rshift>,1,1,616688,411
Control_TS_26B,3,test,R,226,4,820,550,R,1,<rshift>,1,1,617688,359
Control_TS_26B,3,test,R,227,2,820,350,R,1,<rshift>,1,1,618688,367
Control_TS_26B,3,test,R,228,4,820,550,P,0,NONE,0,1,619688,950
Control_TS_26B,3,test,R,229,4,820,550,R,1,<rshift>,1,1,620688,397
Control_TS_26B,3,test,R,230,1,620,350,R,1,<rshift>,1,1,621688,379
Control_TS_26B,3,test,R,231,3,620,550,R,1,<rshift>,1,1,622688,330
Control_TS_26B,3,test,R,232,3,620,550,R,1,<rshift>,1,1,623688,355
Control_TS_26B,3,test,R,233,1,620,350,R,1,<rshift>,1,1,624688,474
Control_TS_26B,3,test,R,234,1,620,350,R,1,<rshift>,1,1,625688,337
Control_TS_26B,3,test,R,235,1,620,350,P,0,NONE,0,1,626688,950
Control_TS_26B,3,test,R,236,4,820,550,R,1,<rshift>,1,1,627688,332
Control_TS_26B,3,test,R,237,2,820,350,R,1,<rshift>,1,1,628688,411
Control_TS_26B,3,test,R,238,4,820,550,R,1,<rshift>,1,1,629688,484
Control_TS_26B,3,test,R,239,2,820,350,R,1,<rshift>,1,1,630688,362
Control_TS_26B,3,test,R,240,4,820,550,R,1,<rshift>,1,1,631688,437
Control_TS_26B,3,test,R,241,1,620,350,R,1,<rshift>,1,1,632688,314
Control_TS_26B,3,test,R,242,1,620,350,R,1,<rshift>,1,1,633688,540
Control_TS_26B,3,test,R,243,4,820,550,R,1,<rshift>,1,1,634688,384
Control_TS_26B,3,test,R,244,4,820,550,R,1,<rshift>,1,1,635688,338
Control_TS_26B,3,test,R,245,2,820,350,P,0,NONE,0,1,636688,950
Control_TS_26B,3,test,R,246,4,820,550,R,1,<rshift>,1,1,637688,515
Control_TS_26B,3,test,R,247,1,620,350,R,1,<rshift>,1,1,638688,260
Control_TS_26B,3,test,R,248,3,620,550,R,1,<rshift>,1,1,639688,386
Control_TS_26B,3,test,R,249,1,620,350,R,1,<rshift>,1,1,640688,260
Control_TS_26B,3,test,R,250,1,620,350,R,1,<rshift>,1,1,641688,326
Control_TS_26B,3,test,R,251,1,620,350,R,1,<rshift>,1,1,642688,281
Control_TS_26B,3,test,R,252,2,820,350,P,0,NONE,0,1,643688,950
Control_TS_26B,3,test,R,253,2,820,350,R,1,<rshift>,1,1,644688,386
Control_TS_26B,3,test,R,254,3,620,550,R,1,<rshift>,1,1,645689,407
Control_TS_26B,3,test,R,255,1,620,350,R,1,<rshift>,1,1,646689,291
Control_TS_26B,3,test,R,256,1,620,350,R,1,<rshift>,1,1,647689,388
Control_TS_26B,3,test,R,257,2,820,350,R,1,<rshift>,1,1,648688,406
Control_TS_26B,3,test,R,258,2,820,350,R,1,<rshift>,1,1,649689,340
Control_TS_26B,3,test,R,259,4,820,550,R,1,<rshift>,1,1,650689,402
Control_TS_26B,3,test,R,260,1,620,350,R,1,<rshift>,1,1,651688,287
Control_TS_26B,3,test,R,261,2,820,350,R,1,<rshift>,1,1,652688,279
Control_TS_26B,3,test,R,262,4,820,550,R,1,<rshift>,1,1,653688,378
Control_TS_26B,3,test,R,263,2,820,350,R,1,<rshift>,1,1,654688,364
Control_TS_26B,3,test,R,264,1,620,350,P,0,<rshift>,1,0,655688,310
Control_TS_26B,3,test,R,265,3,620,550,P,0,NONE,0,1,656688,950
Control_TS_26B,3,test,R,266,1,620,350,R,1,<rshift>,1,1,657688,456
Control_TS_26B,3,test,R,267,4,820,550,R,1,<rshift>,1,1,658688,310
Control_TS_26B,3,test,R,268,1,620,350,R,1,<rshift>,1,1,659688,434
Control_TS_26B,3,test,R,269,3,620,550,R,1,<rshift>,1,1,660688,515
Control_TS_26B,3,test,R,270,4,820,550,R,1,<rshift>,1,1,661688,369
Control_TS_26B,3,test,R,271,2,820,350,R,1,<rshift>,1,1,662688,342
Control_TS_26B,3,test,R,272,3,620,550,P,0,<rshift>,1,0,663688,117
Control_TS_26B,3,test,R,273,2,820,350,R,1,<rshift>,1,1,664688,348
Control_TS_26B,3,test,R,274,4,820,550,R,1,<rshift>,1,1,665688,424
Control_TS_26B,3,test,R,275,2,820,350,R,1,<rshift>,1,1,666688,447
Control_TS_26B,3,test,R,276,3,620,550,R,1,<rshift>,1,1,667688,380
Control_TS_26B,3,test,R,277,4,820,550,R,1,<rshift>,1,1,668688,371
Control_TS_26B,3,test,R,278,1,620,350,R,1,<rshift>,1,1,669688,315
Control_TS_26B,3,test,R,279,3,620,550,R,1,<rshift>,1,1,670688,440
Control_TS_26B,3,test,R,280,2,820,350,R,1,<rshift>,1,1,671688,364
Control_TS_26B,3,test,R,281,3,620,550,P,0,<rshift>,1,0,672688,201
Control_TS_26B,3,test,R,282,1,620,350,P,0,NONE,0,1,673688,950
Control_TS_26B,3,test,R,283,2,820,350,R,1,<rshift>,1,1,674688,394
Control_TS_26B,3,test,R,284,1,620,350,R,1,<rshift>,1,1,675688,486
Control_TS_26B,3,test,R,285,3,620,550,R,1,<rshift>,1,1,676688,555
Control_TS_26B,3,test,R,286,1,620,350,R,1,<rshift>,1,1,677688,441
Control_TS_26B,3,test,R,287,1,620,350,R,1,<rshift>,1,1,678688,482
Control_TS_26B,3,test,R,288,3,620,550,R,1,<rshift>,1,1,679688,396
Control_TS_26B,3,test,R,289,1,620,350,R,1,<rshift>,1,1,680688,290
Control_TS_26B,3,test,R,290,2,820,350,R,1,<rshift>,1,1,681688,308
Control_TS_26B,3,test,R,291,2,820,350,R,1,<rshift>,1,1,682688,286
Control_TS_26B,3,test,R,292,1,620,350,R,1,<rshift>,1,1,683688,287
Control_TS_26B,3,test,R,293,1,620,350,R,1,<rshift>,1,1,684688,292
Control_TS_26B,3,test,R,294,4,820,550,R,1,<rshift>,1,1,685688,329
Control_TS_26B,3,test,R,295,1,620,350,R,1,<rshift>,1,1,686688,276
Control_TS_26B,3,test,R,296,2,820,350,R,1,<rshift>,1,1,687688,271
Control_TS_26B,3,test,R,297,4,820,550,R,1,<rshift>,1,1,688688,311
Control_TS_26B,3,test,R,298,2,820,350,R,1,<rshift>,1,1,689688,334
Control_TS_26B,3,test,R,299,2,820,350,R,1,<rshift>,1,1,690688,291
Control_TS_26B,3,test,R,300,1,620,350,P,0,<rshift>,1,0,691688,298
