subnum,block,type,correctresponse,trial,choice,x,y,stim,present,response,responded,corr,starttime,rt
Control_TS_17_A,0,practice,P,1,4,820,550,P,1,<rshift>,1,1,5473,452
Control_TS_17_A,0,practice,P,2,3,620,550,R,0,<rshift>,1,0,6472,421
Control_TS_17_A,0,practice,P,3,2,820,350,R,0,NONE,0,1,7954,950
Control_TS_17_A,0,practice,P,4,4,820,550,P,1,<rshift>,1,1,8918,454
Control_TS_17_A,0,practice,P,5,4,820,550,P,1,<rshift>,1,1,9471,921
Control_TS_17_A,0,practice,P,6,4,820,550,P,1,NONE,0,0,10470,950
Control_TS_17_A,0,practice,P,7,1,620,350,P,1,<rshift>,1,1,12465,417
Control_TS_17_A,0,practice,P,8,4,820,550,P,1,<rshift>,1,1,12910,720
Control_TS_17_A,0,practice,P,9,1,620,350,P,1,<rshift>,1,1,13644,575
Control_TS_17_A,0,practice,P,10,1,620,350,P,1,NONE,0,0,14471,950
Control_TS_17_A,1,test,P,1,1,620,350,P,1,<rshift>,1,1,19668,443
Control_TS_17_A,1,test,P,2,4,820,550,P,1,<rshift>,1,1,20669,454
Control_TS_17_A,1,test,P,3,3,620,550,P,1,<rshift>,1,1,21668,443
Control_TS_17_A,1,test,P,4,1,620,350,R,0,<rshift>,1,0,22668,352
Control_TS_17_A,1,test,P,5,4,820,550,P,1,<rshift>,1,1,23668,515
Control_TS_17_A,1,test,P,6,4,820,550,P,1,<rshift>,1,1,24668,685
Control_TS_17_A,1,test,P,7,4,820,550,P,1,<rshift>,1,1,25668,515
Control_TS_17_A,1,test,P,8,4,820,550,P,1,<rshift>,1,1,26669,333
Control_TS_17_A,1,test,P,9,3,620,550,P,1,<rshift>,1,1,27668,606
Control_TS_17_A,1,test,P,10,2,820,350,P,1,<rshift>,1,1,28668,490
Control_TS_17_A,1,test,P,11,1,620,350,P,1,<rshift>,1,1,29668,436
Control_TS_17_A,1,test,P,12,2,820,350,P,1,<rshift>,1,1,30668,454
Control_TS_17_A,1,test,P,13,3,620,550,P,1,<rshift>,1,1,31668,422
Control_TS_17_A,1,test,P,14,2,820,350,P,1,<rshift>,1,1,32668,303
Control_TS_17_A,1,test,P,15,4,820,550,P,1,<rshift>,1,1,33668,283
Control_TS_17_A,1,test,P,16,1,620,350,R,0,<rshift>,1,0,34668,296
Control_TS_17_A,1,test,P,17,4,820,550,P,1,<rshift>,1,1,35668,418
Control_TS_17_A,1,test,P,18,1,620,350,P,1,<rshift>,1,1,36668,626
Control_TS_17_A,1,test,P,19,2,820,350,P,1,<rshift>,1,1,37668,464
Control_TS_17_A,1,test,P,20,2,820,350,R,0,NONE,0,1,38668,950
Control_TS_17_A,1,test,P,21,2,820,350,R,0,NONE,0,1,39668,950
Control_TS_17_A,1,test,P,22,3,620,550,R,0,NONE,0,1,40668,950
Control_TS_17_A,1,test,P,23,2,820,350,P,1,<rshift>,1,1,41668,534
Control_TS_17_A,1,test,P,24,1,620,350,P,1,<rshift>,1,1,42668,451
Control_TS_17_A,1,test,P,25,4,820,550,P,1,<rshift>,1,1,43668,353
Control_TS_17_A,1,test,P,26,2,820,350,P,1,<rshift>,1,1,44667,308
Control_TS_17_A,1,test,P,27,3,620,550,P,1,<rshift>,1,1,45668,398
Control_TS_17_A,1,test,P,28,4,820,550,P,1,<rshift>,1,1,46668,553
Control_TS_17_A,1,test,P,29,4,820,550,R,0,NONE,0,1,47668,950
Control_TS_17_A,1,test,P,30,4,820,550,P,1,<rshift>,1,1,48668,421
Control_TS_17_A,1,test,P,31,4,820,550,P,1,<rshift>,1,1,49669,413
Control_TS_17_A,1,test,P,32,2,820,350,R,0,<rshift>,1,0,50668,412
Control_TS_17_A,1,test,P,33,1,620,350,P,1,<rshift>,1,1,51668,575
Control_TS_17_A,1,test,P,34,3,620,550,R,0,<rshift>,1,0,52668,606
Control_TS_17_A,1,test,P,35,1,620,350,P,1,<rshift>,1,1,53668,356
Control_TS_17_A,1,test,P,36,2,820,350,P,1,<rshift>,1,1,54668,339
Control_TS_17_A,1,test,P,37,2,820,350,R,0,NONE,0,1,55668,950
Control_TS_17_A,1,test,P,38,3,620,550,R,0,<rshift>,1,0,56668,319
Control_TS_17_A,1,test,P,39,1,620,350,P,1,<rshift>,1,1,57668,494
Control_TS_17_A,1,test,P,40,2,820,350,P,1,<rshift>,1,1,58668,344
Control_TS_17_A,1,test,P,41,1,620,350,P,1,<rshift>,1,1,59668,295
Control_TS_17_A,1,test,P,42,1,620,350,P,1,<rshift>,1,1,60668,325
Control_TS_17_A,1,test,P,43,2,820,350,P,1,<rshift>,1,1,61668,306
Control_TS_17_A,1,test,P,44,4,820,550,P,1,<rshift>,1,1,62668,351
Control_TS_17_A,1,test,P,45,3,620,550,P,1,<rshift>,1,1,63668,407
Control_TS_17_A,1,test,P,46,3,620,550,P,1,<rshift>,1,1,64668,343
Control_TS_17_A,1,test,P,47,4,820,550,P,1,<rshift>,1,1,65668,359
Control_TS_17_A,1,test,P,48,2,820,350,P,1,<rshift>,1,1,66668,485
Control_TS_17_A,1,test,P,49,3,620,550,R,0,NONE,0,1,67668,950
Control_TS_17_A,1,test,P,50,4,820,550,P,1,<rshift>,1,1,68668,358
Control_TS_17_A,1,test,P,51,4,820,550,P,1,<rshift>,1,1,69668,373
Control_TS_17_A,1,test,P,52,2,820,350,P,1,<rshift>,1,1,70668,338
Control_TS_17_A,1,test,P,53,3,620,550,R,0,NONE,0,1,71668,950
Control_TS_17_A,1,test,P,54,2,820,350,P,1,<rshift>,1,1,72668,361
Control_TS_17_A,1,test,P,55,2,820,350,P,1,<rshift>,1,1,73668,478
Control_TS_17_A,1,test,P,56,4,820,550,R,0,<rshift>,1,0,74668,350
Control_TS_17_A,1,test,P,57,4,820,550,R,0,NONE,0,1,75668,950
Control_TS_17_A,1,test,P,58,1,620,350,P,1,<rshift>,1,1,76668,350
Control_TS_17_A,1,test,P,59,1,620,350,P,1,<rshift>,1,1,77668,394
Control_TS_17_A,1,test,P,60,1,620,350,P,1,<rshift>,1,1,78668,663
Control_TS_17_A,1,test,P,61,1,620,350,R,0,<rshift>,1,0,79668,442
Control_TS_17_A,1,test,P,62,1,620,350,P,1,<rshift>,1,1,80667,540
Control_TS_17_A,1,test,P,63,1,620,350,R,0,NONE,0,1,81668,950
Control_TS_17_A,1,test,P,64,3,620,550,R,0,NONE,0,1,82668,950
Control_TS_17_A,1,test,P,65,3,620,550,P,1,NONE,0,0,83668,950
Control_TS_17_A,1,test,P,66,1,620,350,R,0,NONE,0,1,84668,950
Control_TS_17_A,1,test,P,67,4,820,550,P,1,<rshift>,1,1,85668,323
Control_TS_17_A,1,test,P,68,1,620,350,P,1,<rshift>,1,1,86668,364
Control_TS_17_A,1,test,P,69,1,620,350,P,1,<rshift>,1,1,87668,447
Control_TS_17_A,1,test,P,70,3,620,550,P,1,<rshift>,1,1,88668,342
Control_TS_17_A,1,test,P,71,2,820,350,P,1,<rshift>,1,1,89668,283
Control_TS_17_A,1,test,P,72,3,620,550,P,1,<rshift>,1,1,90668,415
Control_TS_17_A,1,test,P,73,2,820,350,P,1,<rshift>,1,1,91668,344
Control_TS_17_A,1,test,P,74,3,620,550,P,1,<rshift>,1,1,92668,352
Control_TS_17_A,1,test,P,75,1,620,350,R,0,<rshift>,1,0,93668,403
Control_TS_17_A,1,test,P,76,4,820,550,P,1,<rshift>,1,1,94668,654
Control_TS_17_A,1,test,P,77,3,620,550,R,0,<rshift>,1,0,95668,321
Control_TS_17_A,1,test,P,78,1,620,350,P,1,<rshift>,1,1,96668,616
Control_TS_17_A,1,test,P,79,2,820,350,P,1,<rshift>,1,1,97668,480
Control_TS_17_A,1,test,P,80,3,620,550,P,1,<rshift>,1,1,98668,321
Control_TS_17_A,1,test,P,81,2,820,350,P,1,<rshift>,1,1,99668,420
Control_TS_17_A,1,test,P,82,3,620,550,P,1,<rshift>,1,1,100668,260
Control_TS_17_A,1,test,P,83,1,620,350,P,1,<rshift>,1,1,101668,358
Control_TS_17_A,1,test,P,84,1,620,350,P,1,<rshift>,1,1,102668,195
Control_TS_17_A,1,test,P,85,3,620,550,P,1,<rshift>,1,1,103668,300
Control_TS_17_A,1,test,P,86,3,620,550,R,0,NONE,0,1,104668,950
Control_TS_17_A,1,test,P,87,3,620,550,P,1,<rshift>,1,1,105668,531
Control_TS_17_A,1,test,P,88,2,820,350,P,1,<rshift>,1,1,106668,348
Control_TS_17_A,1,test,P,89,4,820,550,R,0,<rshift>,1,0,107668,306
Control_TS_17_A,1,test,P,90,2,820,350,P,1,<rshift>,1,1,108668,385
Control_TS_17_A,1,test,P,91,3,620,550,R,0,NONE,0,1,109668,950
Control_TS_17_A,1,test,P,92,4,820,550,P,1,<rshift>,1,1,110668,332
Control_TS_17_A,1,test,P,93,2,820,350,P,1,<rshift>,1,1,111668,335
Control_TS_17_A,1,test,P,94,2,820,350,P,1,<rshift>,1,1,112668,408
Control_TS_17_A,1,test,P,95,4,820,550,P,1,<rshift>,1,1,113668,324
Control_TS_17_A,1,test,P,96,4,820,550,P,1,<rshift>,1,1,114668,333
Control_TS_17_A,1,test,P,97,4,820,550,P,1,<rshift>,1,1,115668,279
Control_TS_17_A,1,test,P,98,2,820,350,P,1,<rshift>,1,1,116668,346
Control_TS_17_A,1,test,P,99,1,620,350,P,1,<rshift>,1,1,117668,339
Control_TS_17_A,1,test,P,100,3,620,550,P,1,<rshift>,1,1,118668,359
Control_TS_17_A,1,test,P,101,2,820,350,P,1,<rshift>,1,1,119668,341
Control_TS_17_A,1,test,P,102,2,820,350,P,1,<rshift>,1,1,120668,322
Control_TS_17_A,1,test,P,103,1,620,350,R,0,<rshift>,1,0,121668,316
Control_TS_17_A,1,test,P,104,2,820,350,R,0,NONE,0,1,122668,950
Control_TS_17_A,1,test,P,105,3,620,550,P,1,<rshift>,1,1,123668,389
Control_TS_17_A,1,test,P,106,2,820,350,P,1,<rshift>,1,1,124668,327
Control_TS_17_A,1,test,P,107,1,620,350,P,1,<rshift>,1,1,125668,340
Control_TS_17_A,1,test,P,108,1,620,350,R,0,<rshift>,1,0,126668,318
Control_TS_17_A,1,test,P,109,3,620,550,R,0,<rshift>,1,0,127668,346
Control_TS_17_A,1,test,P,110,2,820,350,R,0,<rshift>,1,0,128668,342
Control_TS_17_A,1,test,P,111,4,820,550,P,1,<rshift>,1,1,129668,553
Control_TS_17_A,1,test,P,112,1,620,350,P,1,<rshift>,1,1,130668,454
Control_TS_17_A,1,test,P,113,3,620,550,P,1,<rshift>,1,1,131668,457
Control_TS_17_A,1,test,P,114,1,620,350,P,1,<rshift>,1,1,132668,483
Control_TS_17_A,1,test,P,115,2,820,350,R,0,NONE,0,1,133668,950
Control_TS_17_A,1,test,P,116,3,620,550,P,1,<rshift>,1,1,134668,448
Control_TS_17_A,1,test,P,117,4,820,550,P,1,<rshift>,1,1,135668,515
Control_TS_17_A,1,test,P,118,3,620,550,P,1,<rshift>,1,1,136668,326
Control_TS_17_A,1,test,P,119,4,820,550,R,0,<rshift>,1,0,137668,310
Control_TS_17_A,1,test,P,120,4,820,550,R,0,<rshift>,1,0,138668,326
Control_TS_17_A,1,test,P,121,2,820,350,P,1,<rshift>,1,1,139668,744
Control_TS_17_A,1,test,P,122,4,820,550,R,0,NONE,0,1,140668,950
Control_TS_17_A,1,test,P,123,4,820,550,P,1,<rshift>,1,1,141668,515
Control_TS_17_A,1,test,P,124,2,820,350,P,1,<rshift>,1,1,142668,388
Control_TS_17_A,1,test,P,125,2,820,350,P,1,<rshift>,1,1,143668,437
Control_TS_17_A,1,test,P,126,3,620,550,P,1,NONE,0,0,144668,950
Control_TS_17_A,1,test,P,127,3,620,550,P,1,<rshift>,1,1,145668,0
Control_TS_17_A,1,test,P,128,4,820,550,P,1,NONE,0,0,146668,950
Control_TS_17_A,1,test,P,129,4,820,550,P,1,NONE,0,0,147668,950
Control_TS_17_A,1,test,P,130,4,820,550,P,1,<rshift>,1,1,148668,663
Control_TS_17_A,1,test,P,131,2,820,350,R,0,<rshift>,1,0,149668,387
Control_TS_17_A,1,test,P,132,1,620,350,R,0,NONE,0,1,150668,950
Control_TS_17_A,1,test,P,133,3,620,550,P,1,<rshift>,1,1,151668,445
Control_TS_17_A,1,test,P,134,2,820,350,P,1,<rshift>,1,1,152668,380
Control_TS_17_A,1,test,P,135,1,620,350,P,1,<rshift>,1,1,153668,347
Control_TS_17_A,1,test,P,136,3,620,550,P,1,<rshift>,1,1,154668,331
Control_TS_17_A,1,test,P,137,1,620,350,P,1,<rshift>,1,1,155667,433
Control_TS_17_A,1,test,P,138,1,620,350,P,1,<rshift>,1,1,156668,397
Control_TS_17_A,1,test,P,139,4,820,550,P,1,<rshift>,1,1,157668,319
Control_TS_17_A,1,test,P,140,2,820,350,P,1,<rshift>,1,1,158668,310
Control_TS_17_A,1,test,P,141,2,820,350,P,1,<rshift>,1,1,159668,298
Control_TS_17_A,1,test,P,142,1,620,350,P,1,<rshift>,1,1,160668,327
Control_TS_17_A,1,test,P,143,1,620,350,P,1,<rshift>,1,1,161668,397
Control_TS_17_A,1,test,P,144,3,620,550,P,1,<rshift>,1,1,162668,339
Control_TS_17_A,1,test,P,145,4,820,550,R,0,<rshift>,1,0,163668,320
Control_TS_17_A,1,test,P,146,1,620,350,P,1,<rshift>,1,1,164668,529
Control_TS_17_A,1,test,P,147,3,620,550,P,1,<rshift>,1,1,165668,612
Control_TS_17_A,1,test,P,148,2,820,350,P,1,<rshift>,1,1,166668,852
Control_TS_17_A,1,test,P,149,3,620,550,R,0,NONE,0,1,167668,950
Control_TS_17_A,1,test,P,150,4,820,550,R,0,<rshift>,1,0,168668,331
Control_TS_17_A,1,test,P,151,1,620,350,P,1,<rshift>,1,1,169668,392
Control_TS_17_A,1,test,P,152,1,620,350,R,0,NONE,0,1,170668,950
Control_TS_17_A,1,test,P,153,3,620,550,P,1,<rshift>,1,1,171668,387
Control_TS_17_A,1,test,P,154,1,620,350,P,1,<rshift>,1,1,172668,431
Control_TS_17_A,1,test,P,155,3,620,550,P,1,<rshift>,1,1,173668,464
Control_TS_17_A,1,test,P,156,3,620,550,P,1,<rshift>,1,1,174668,515
Control_TS_17_A,1,test,P,157,4,820,550,R,0,NONE,0,1,175668,950
Control_TS_17_A,1,test,P,158,2,820,350,P,1,<rshift>,1,1,176668,287
Control_TS_17_A,1,test,P,159,2,820,350,P,1,<rshift>,1,1,177667,361
Control_TS_17_A,1,test,P,160,1,620,350,P,1,<rshift>,1,1,178668,337
Control_TS_17_A,1,test,P,161,3,620,550,R,0,NONE,0,1,179668,950
Control_TS_17_A,1,test,P,162,4,820,550,P,1,<rshift>,1,1,180668,302
Control_TS_17_A,1,test,P,163,2,820,350,P,1,<rshift>,1,1,181668,312
Control_TS_17_A,1,test,P,164,3,620,550,P,1,<rshift>,1,1,182668,355
Control_TS_17_A,1,test,P,165,4,820,550,P,1,<rshift>,1,1,183668,430
Control_TS_17_A,1,test,P,166,1,620,350,P,1,<rshift>,1,1,184668,395
Control_TS_17_A,1,test,P,167,2,820,350,P,1,<rshift>,1,1,185668,398
Control_TS_17_A,1,test,P,168,1,620,350,R,0,NONE,0,1,186668,950
Control_TS_17_A,1,test,P,169,3,620,550,P,1,<rshift>,1,1,187668,452
Control_TS_17_A,1,test,P,170,4,820,550,P,1,<rshift>,1,1,188668,430
Control_TS_17_A,1,test,P,171,2,820,350,P,1,<rshift>,1,1,189668,517
Control_TS_17_A,1,test,P,172,4,820,550,P,1,<rshift>,1,1,190668,366
Control_TS_17_A,1,test,P,173,1,620,350,P,1,<rshift>,1,1,191668,354
Control_TS_17_A,1,test,P,174,3,620,550,P,1,<rshift>,1,1,192668,372
Control_TS_17_A,1,test,P,175,2,820,350,P,1,<rshift>,1,1,193668,393
Control_TS_17_A,1,test,P,176,2,820,350,P,1,<rshift>,1,1,194668,361
Control_TS_17_A,1,test,P,177,4,820,550,P,1,<rshift>,1,1,195668,310
Control_TS_17_A,1,test,P,178,1,620,350,P,1,<rshift>,1,1,196669,358
Control_TS_17_A,1,test,P,179,1,620,350,P,1,<rshift>,1,1,197668,382
Control_TS_17_A,1,test,P,180,4,820,550,R,0,NONE,0,1,198668,950
Control_TS_17_A,1,test,P,181,2,820,350,P,1,<rshift>,1,1,199668,330
Control_TS_17_A,1,test,P,182,2,820,350,P,1,<rshift>,1,1,200668,364
Control_TS_17_A,1,test,P,183,1,620,350,P,1,<rshift>,1,1,201668,391
Control_TS_17_A,1,test,P,184,1,620,350,P,1,<rshift>,1,1,202668,339
Control_TS_17_A,1,test,P,185,2,820,350,P,1,<rshift>,1,1,203668,297
Control_TS_17_A,1,test,P,186,1,620,350,P,1,<rshift>,1,1,204668,362
Control_TS_17_A,1,test,P,187,3,620,550,P,1,<rshift>,1,1,205668,408
Control_TS_17_A,1,test,P,188,2,820,350,P,1,<rshift>,1,1,206668,336
Control_TS_17_A,1,test,P,189,3,620,550,P,1,<rshift>,1,1,207668,371
Control_TS_17_A,1,test,P,190,1,620,350,R,0,<rshift>,1,0,208668,488
Control_TS_17_A,1,test,P,191,4,820,550,P,1,NONE,0,0,209668,950
Control_TS_17_A,1,test,P,192,3,620,550,P,1,<rshift>,1,1,210668,447
Control_TS_17_A,1,test,P,193,3,620,550,P,1,<rshift>,1,1,211667,385
Control_TS_17_A,1,test,P,194,2,820,350,P,1,<rshift>,1,1,212668,394
Control_TS_17_A,1,test,P,195,1,620,350,P,1,<rshift>,1,1,213668,347
Control_TS_17_A,1,test,P,196,1,620,350,P,1,<rshift>,1,1,214668,381
Control_TS_17_A,1,test,P,197,3,620,550,P,1,<rshift>,1,1,215668,410
Control_TS_17_A,1,test,P,198,1,620,350,P,1,NONE,0,0,216668,950
Control_TS_17_A,1,test,P,199,4,820,550,R,0,<rshift>,1,0,217668,256
Control_TS_17_A,1,test,P,200,2,820,350,P,1,<rshift>,1,1,218668,293
Control_TS_17_A,1,test,P,201,2,820,350,P,1,<rshift>,1,1,219668,397
Control_TS_17_A,1,test,P,202,2,820,350,P,1,<rshift>,1,1,220668,440
Control_TS_17_A,1,test,P,203,1,620,350,P,1,<rshift>,1,1,221668,404
Control_TS_17_A,1,test,P,204,4,820,550,P,1,<rshift>,1,1,222668,493
Control_TS_17_A,1,test,P,205,3,620,550,P,1,<rshift>,1,1,223668,351
Control_TS_17_A,1,test,P,206,1,620,350,P,1,<rshift>,1,1,224668,341
Control_TS_17_A,1,test,P,207,1,620,350,P,1,<rshift>,1,1,225668,393
Control_TS_17_A,1,test,P,208,4,820,550,P,1,<rshift>,1,1,226668,582
Control_TS_17_A,1,test,P,209,2,820,350,P,1,<rshift>,1,1,227668,275
Control_TS_17_A,1,test,P,210,3,620,550,P,1,<rshift>,1,1,228668,282
Control_TS_17_A,1,test,P,211,3,620,550,P,1,<rshift>,1,1,229668,287
Control_TS_17_A,1,test,P,212,4,820,550,R,0,<rshift>,1,0,230668,313
Control_TS_17_A,1,test,P,213,4,820,550,R,0,<rshift>,1,0,231668,560
Control_TS_17_A,1,test,P,214,3,620,550,P,1,<rshift>,1,1,232668,551
Control_TS_17_A,1,test,P,215,4,820,550,P,1,<rshift>,1,1,233668,655
Control_TS_17_A,1,test,P,216,1,620,350,P,1,<rshift>,1,1,234668,334
Control_TS_17_A,1,test,P,217,1,620,350,P,1,<rshift>,1,1,235668,435
Control_TS_17_A,1,test,P,218,4,820,550,P,1,<rshift>,1,1,236668,332
Control_TS_17_A,1,test,P,219,3,620,550,P,1,<rshift>,1,1,237668,653
Control_TS_17_A,1,test,P,220,3,620,550,P,1,<rshift>,1,1,238668,514
Control_TS_17_A,1,test,P,221,2,820,350,P,1,<rshift>,1,1,239668,405
Control_TS_17_A,1,test,P,222,4,820,550,P,1,<rshift>,1,1,240668,304
Control_TS_17_A,1,test,P,223,2,820,350,P,1,<rshift>,1,1,241668,318
Control_TS_17_A,1,test,P,224,1,620,350,P,1,<rshift>,1,1,242668,322
Control_TS_17_A,1,test,P,225,2,820,350,P,1,<rshift>,1,1,243668,272
Control_TS_17_A,1,test,P,226,1,620,350,P,1,<rshift>,1,1,244668,286
Control_TS_17_A,1,test,P,227,3,620,550,P,1,<rshift>,1,1,245668,309
Control_TS_17_A,1,test,P,228,1,620,350,P,1,<rshift>,1,1,246668,325
Control_TS_17_A,1,test,P,229,4,820,550,P,1,<rshift>,1,1,247668,298
Control_TS_17_A,1,test,P,230,1,620,350,R,0,<rshift>,1,0,248668,296
Control_TS_17_A,1,test,P,231,4,820,550,P,1,<rshift>,1,1,249668,533
Control_TS_17_A,1,test,P,232,2,820,350,P,1,<rshift>,1,1,250668,466
Control_TS_17_A,1,test,P,233,2,820,350,P,1,<rshift>,1,1,251668,429
Control_TS_17_A,1,test,P,234,3,620,550,P,1,<rshift>,1,1,252668,321
Control_TS_17_A,1,test,P,235,3,620,550,R,0,<rshift>,1,0,253668,366
Control_TS_17_A,1,test,P,236,3,620,550,P,1,<rshift>,1,1,254668,566
Control_TS_17_A,1,test,P,237,2,820,350,R,0,NONE,0,1,255668,950
Control_TS_17_A,1,test,P,238,4,820,550,P,1,<rshift>,1,1,256668,322
Control_TS_17_A,1,test,P,239,4,820,550,P,1,<rshift>,1,1,257668,533
Control_TS_17_A,1,test,P,240,4,820,550,P,1,<rshift>,1,1,258668,341
Control_TS_17_A,1,test,P,241,1,620,350,P,1,<rshift>,1,1,259668,349
Control_TS_17_A,1,test,P,242,3,620,550,P,1,<rshift>,1,1,260668,385
Control_TS_17_A,1,test,P,243,3,620,550,P,1,<rshift>,1,1,261668,328
Control_TS_17_A,1,test,P,244,1,620,350,P,1,<rshift>,1,1,262668,318
Control_TS_17_A,1,test,P,245,2,820,350,P,1,<rshift>,1,1,263668,312
Control_TS_17_A,1,test,P,246,4,820,550,R,0,<rshift>,1,0,264668,376
Control_TS_17_A,1,test,P,247,4,820,550,P,1,<rshift>,1,1,265668,515
Control_TS_17_A,1,test,P,248,1,620,350,P,1,<rshift>,1,1,266668,469
Control_TS_17_A,1,test,P,249,4,820,550,P,1,<rshift>,1,1,267668,537
Control_TS_17_A,1,test,P,250,2,820,350,P,1,<rshift>,1,1,268668,356
Control_TS_17_A,1,test,P,251,3,620,550,P,1,<rshift>,1,1,269668,309
Control_TS_17_A,1,test,P,252,4,820,550,P,1,<rshift>,1,1,270668,469
Control_TS_17_A,1,test,P,253,2,820,350,R,0,NONE,0,1,271668,950
Control_TS_17_A,1,test,P,254,3,620,550,P,1,<rshift>,1,1,272668,304
Control_TS_17_A,1,test,P,255,2,820,350,P,1,<rshift>,1,1,273668,488
Control_TS_17_A,1,test,P,256,3,620,550,P,1,NONE,0,0,274668,950
Control_TS_17_A,1,test,P,257,4,820,550,P,1,<rshift>,1,1,275668,309
Control_TS_17_A,1,test,P,258,1,620,350,R,0,<rshift>,1,0,276668,353
Control_TS_17_A,1,test,P,259,2,820,350,P,1,<rshift>,1,1,277668,415
Control_TS_17_A,1,test,P,260,3,620,550,P,1,<rshift>,1,1,278668,380
Control_TS_17_A,1,test,P,261,4,820,550,P,1,<rshift>,1,1,279668,418
Control_TS_17_A,1,test,P,262,1,620,350,R,0,NONE,0,1,280668,950
Control_TS_17_A,1,test,P,263,4,820,550,P,1,<rshift>,1,1,281668,266
Control_TS_17_A,1,test,P,264,4,820,550,P,1,<rshift>,1,1,282668,433
Control_TS_17_A,1,test,P,265,4,820,550,P,1,<rshift>,1,1,283668,458
Control_TS_17_A,1,test,P,266,2,820,350,R,0,<rshift>,1,0,284668,389
Control_TS_17_A,1,test,P,267,4,820,550,P,1,<rshift>,1,1,285668,469
Control_TS_17_A,1,test,P,268,1,620,350,P,1,<rshift>,1,1,286668,338
Control_TS_17_A,1,test,P,269,4,820,550,P,1,<rshift>,1,1,287668,332
Control_TS_17_A,1,test,P,270,3,620,550,P,1,<rshift>,1,1,288668,406
Control_TS_17_A,1,test,P,271,1,620,350,P,1,<rshift>,1,1,289668,497
Control_TS_17_A,1,test,P,272,3,620,550,P,1,<rshift>,1,1,290668,459
Control_TS_17_A,1,test,P,273,2,820,350,P,1,<rshift>,1,1,291668,323
Control_TS_17_A,1,test,P,274,4,820,550,P,1,<rshift>,1,1,292668,311
Control_TS_17_A,1,test,P,275,4,820,550,P,1,<rshift>,1,1,293668,368
Control_TS_17_A,1,test,P,276,2,820,350,P,1,<rshift>,1,1,294668,388
Control_TS_17_A,1,test,P,277,2,820,350,P,1,<rshift>,1,1,295668,354
Control_TS_17_A,1,test,P,278,1,620,350,P,1,<rshift>,1,1,296668,392
Control_TS_17_A,1,test,P,279,1,620,350,P,1,<rshift>,1,1,297668,324
Control_TS_17_A,1,test,P,280,2,820,350,R,0,<rshift>,1,0,298668,311
Control_TS_17_A,1,test,P,281,4,820,550,P,1,<rshift>,1,1,299668,458
Control_TS_17_A,1,test,P,282,4,820,550,R,0,NONE,0,1,300668,950
Control_TS_17_A,1,test,P,283,2,820,350,P,1,<rshift>,1,1,301668,295
Control_TS_17_A,1,test,P,284,3,620,550,P,1,<rshift>,1,1,302668,321
Control_TS_17_A,1,test,P,285,4,820,550,P,1,<rshift>,1,1,303668,340
Control_TS_17_A,1,test,P,286,4,820,550,P,1,<rshift>,1,1,304668,515
Control_TS_17_A,1,test,P,287,2,820,350,R,0,<rshift>,1,0,305668,335
Control_TS_17_A,1,test,P,288,4,820,550,R,0,NONE,0,1,306668,950
Control_TS_17_A,1,test,P,289,1,620,350,P,1,<rshift>,1,1,307668,456
Control_TS_17_A,1,test,P,290,2,820,350,P,1,<rshift>,1,1,308668,410
Control_TS_17_A,1,test,P,291,3,620,550,P,1,<rshift>,1,1,309668,605
Control_TS_17_A,1,test,P,292,2,820,350,P,1,<rshift>,1,1,310668,651
Control_TS_17_A,1,test,P,293,1,620,350,R,0,NONE,0,1,311668,950
Control_TS_17_A,1,test,P,294,2,820,350,P,1,<rshift>,1,1,312668,480
Control_TS_17_A,1,test,P,295,2,820,350,P,1,<rshift>,1,1,313668,711
Control_TS_17_A,1,test,P,296,1,620,350,P,1,<rshift>,1,1,314667,943
Control_TS_17_A,1,test,P,297,2,820,350,P,1,NONE,0,0,315668,950
Control_TS_17_A,1,test,P,298,1,620,350,P,1,<rshift>,1,1,316668,398
Control_TS_17_A,1,test,P,299,3,620,550,P,1,<rshift>,1,1,317668,289
Control_TS_17_A,1,test,P,300,3,620,550,R,0,NONE,0,1,318668,950
Control_TS_17_A,2,practice,R,1,1,620,350,R,1,<rshift>,1,1,324479,499
Control_TS_17_A,2,practice,R,2,3,620,550,R,1,<rshift>,1,1,325478,573
Control_TS_17_A,2,practice,R,3,2,820,350,P,0,NONE,0,1,326479,950
Control_TS_17_A,2,practice,R,4,2,820,350,R,1,<rshift>,1,1,327478,474
Control_TS_17_A,2,practice,R,5,1,620,350,P,0,NONE,0,1,328478,950
Control_TS_17_A,2,practice,R,6,3,620,550,R,1,<rshift>,1,1,329478,360
Control_TS_17_A,2,practice,R,7,1,620,350,R,1,<rshift>,1,1,330478,474
Control_TS_17_A,2,practice,R,8,3,620,550,R,1,<rshift>,1,1,331478,377
Control_TS_17_A,2,practice,R,9,3,620,550,R,1,<rshift>,1,1,332478,371
Control_TS_17_A,2,practice,R,10,2,820,350,R,1,<rshift>,1,1,333478,346
Control_TS_17_A,3,test,R,1,1,620,350,R,1,<rshift>,1,1,337722,412
Control_TS_17_A,3,test,R,2,4,820,550,R,1,<rshift>,1,1,338722,373
Control_TS_17_A,3,test,R,3,1,620,350,R,1,<rshift>,1,1,339722,362
Control_TS_17_A,3,test,R,4,1,620,350,R,1,<rshift>,1,1,340722,325
Control_TS_17_A,3,test,R,5,2,820,350,R,1,<rshift>,1,1,341722,360
Control_TS_17_A,3,test,R,6,1,620,350,P,0,<rshift>,1,0,342722,333
Control_TS_17_A,3,test,R,7,3,620,550,R,1,<rshift>,1,1,343722,638
Control_TS_17_A,3,test,R,8,1,620,350,R,1,<rshift>,1,1,344722,413
Control_TS_17_A,3,test,R,9,1,620,350,P,0,NONE,0,1,345722,950
Control_TS_17_A,3,test,R,10,4,820,550,R,1,<rshift>,1,1,346722,367
Control_TS_17_A,3,test,R,11,4,820,550,R,1,<rshift>,1,1,347722,424
Control_TS_17_A,3,test,R,12,3,620,550,R,1,<rshift>,1,1,348722,416
Control_TS_17_A,3,test,R,13,4,820,550,R,1,<rshift>,1,1,349722,359
Control_TS_17_A,3,test,R,14,3,620,550,P,0,<rshift>,1,0,350722,366
Control_TS_17_A,3,test,R,15,1,620,350,R,1,<rshift>,1,1,351722,362
Control_TS_17_A,3,test,R,16,2,820,350,R,1,<rshift>,1,1,352722,392
Control_TS_17_A,3,test,R,17,1,620,350,R,1,<rshift>,1,1,353722,548
Control_TS_17_A,3,test,R,18,3,620,550,P,0,<rshift>,1,0,354722,374
Control_TS_17_A,3,test,R,19,4,820,550,R,1,<rshift>,1,1,355722,645
Control_TS_17_A,3,test,R,20,1,620,350,R,1,<rshift>,1,1,356722,424
Control_TS_17_A,3,test,R,21,2,820,350,R,1,<rshift>,1,1,357722,304
Control_TS_17_A,3,test,R,22,2,820,350,R,1,<rshift>,1,1,358722,348
Control_TS_17_A,3,test,R,23,1,620,350,R,1,<rshift>,1,1,359722,391
Control_TS_17_A,3,test,R,24,3,620,550,R,1,<rshift>,1,1,360722,394
Control_TS_17_A,3,test,R,25,1,620,350,R,1,<rshift>,1,1,361722,332
Control_TS_17_A,3,test,R,26,4,820,550,R,1,<rshift>,1,1,362722,299
Control_TS_17_A,3,test,R,27,1,620,350,R,1,<rshift>,1,1,363722,315
Control_TS_17_A,3,test,R,28,3,620,550,R,1,<rshift>,1,1,364722,315
Control_TS_17_A,3,test,R,29,2,820,350,R,1,<rshift>,1,1,365722,348
Control_TS_17_A,3,test,R,30,1,620,350,R,1,<rshift>,1,1,366722,432
Control_TS_17_A,3,test,R,31,1,620,350,R,1,<rshift>,1,1,367722,322
Control_TS_17_A,3,test,R,32,4,820,550,P,0,<rshift>,1,0,368722,302
Control_TS_17_A,3,test,R,33,4,820,550,R,1,<rshift>,1,1,369722,601
Control_TS_17_A,3,test,R,34,3,620,550,R,1,<rshift>,1,1,370722,348
Control_TS_17_A,3,test,R,35,2,820,350,P,0,<rshift>,1,0,371722,333
Control_TS_17_A,3,test,R,36,3,620,550,R,1,<rshift>,1,1,372722,514
Control_TS_17_A,3,test,R,37,2,820,350,P,0,NONE,0,1,373722,950
Control_TS_17_A,3,test,R,38,4,820,550,R,1,<rshift>,1,1,374722,322
Control_TS_17_A,3,test,R,39,2,820,350,P,0,NONE,0,1,375722,950
Control_TS_17_A,3,test,R,40,4,820,550,R,1,<rshift>,1,1,376722,583
Control_TS_17_A,3,test,R,41,3,620,550,R,1,<rshift>,1,1,377722,438
Control_TS_17_A,3,test,R,42,4,820,550,P,0,<rshift>,1,0,378722,376
Control_TS_17_A,3,test,R,43,2,820,350,P,0,NONE,0,1,379722,950
Control_TS_17_A,3,test,R,44,3,620,550,R,1,<rshift>,1,1,380722,354
Control_TS_17_A,3,test,R,45,3,620,550,R,1,<rshift>,1,1,381722,367
Control_TS_17_A,3,test,R,46,3,620,550,R,1,<rshift>,1,1,382722,473
Control_TS_17_A,3,test,R,47,4,820,550,P,0,<rshift>,1,0,383722,487
Control_TS_17_A,3,test,R,48,2,820,350,P,0,NONE,0,1,384722,950
Control_TS_17_A,3,test,R,49,1,620,350,R,1,<rshift>,1,1,385722,320
Control_TS_17_A,3,test,R,50,3,620,550,R,1,<rshift>,1,1,386722,328
Control_TS_17_A,3,test,R,51,3,620,550,R,1,<rshift>,1,1,387722,554
Control_TS_17_A,3,test,R,52,2,820,350,R,1,<rshift>,1,1,388722,321
Control_TS_17_A,3,test,R,53,4,820,550,R,1,<rshift>,1,1,389722,309
Control_TS_17_A,3,test,R,54,4,820,550,P,0,<rshift>,1,0,390722,327
Control_TS_17_A,3,test,R,55,3,620,550,P,0,<rshift>,1,0,391722,292
Control_TS_17_A,3,test,R,56,2,820,350,R,1,<rshift>,1,1,392723,461
Control_TS_17_A,3,test,R,57,4,820,550,R,1,<rshift>,1,1,393722,515
Control_TS_17_A,3,test,R,58,1,620,350,R,1,<rshift>,1,1,394722,418
Control_TS_17_A,3,test,R,59,2,820,350,P,0,NONE,0,1,395722,950
Control_TS_17_A,3,test,R,60,1,620,350,P,0,<rshift>,1,0,396722,363
Control_TS_17_A,3,test,R,61,4,820,550,R,1,<rshift>,1,1,397722,393
Control_TS_17_A,3,test,R,62,1,620,350,R,1,<rshift>,1,1,398723,423
Control_TS_17_A,3,test,R,63,2,820,350,P,0,NONE,0,1,399722,950
Control_TS_17_A,3,test,R,64,1,620,350,P,0,<rshift>,1,0,400722,341
Control_TS_17_A,3,test,R,65,4,820,550,R,1,<rshift>,1,1,401722,519
Control_TS_17_A,3,test,R,66,2,820,350,R,1,<rshift>,1,1,402722,467
Control_TS_17_A,3,test,R,67,4,820,550,P,0,NONE,0,1,403722,950
Control_TS_17_A,3,test,R,68,4,820,550,R,1,<rshift>,1,1,404722,474
Control_TS_17_A,3,test,R,69,2,820,350,R,1,<rshift>,1,1,405722,419
Control_TS_17_A,3,test,R,70,3,620,550,P,0,<rshift>,1,0,406723,325
Control_TS_17_A,3,test,R,71,3,620,550,R,1,<rshift>,1,1,407722,600
Control_TS_17_A,3,test,R,72,3,620,550,R,1,<rshift>,1,1,408722,940
Control_TS_17_A,3,test,R,73,1,620,350,P,0,NONE,0,1,409721,950
Control_TS_17_A,3,test,R,74,3,620,550,P,0,<rshift>,1,0,410722,367
Control_TS_17_A,3,test,R,75,4,820,550,R,1,<rshift>,1,1,411722,324
Control_TS_17_A,3,test,R,76,2,820,350,R,1,<rshift>,1,1,412722,340
Control_TS_17_A,3,test,R,77,3,620,550,R,1,<rshift>,1,1,413722,289
Control_TS_17_A,3,test,R,78,4,820,550,R,1,<rshift>,1,1,414723,310
Control_TS_17_A,3,test,R,79,4,820,550,R,1,<rshift>,1,1,415722,309
Control_TS_17_A,3,test,R,80,3,620,550,R,1,<rshift>,1,1,416722,298
Control_TS_17_A,3,test,R,81,4,820,550,R,1,<rshift>,1,1,417722,276
Control_TS_17_A,3,test,R,82,4,820,550,R,1,<rshift>,1,1,418722,368
Control_TS_17_A,3,test,R,83,1,620,350,R,1,<rshift>,1,1,419722,348
Control_TS_17_A,3,test,R,84,1,620,350,R,1,<rshift>,1,1,420722,355
Control_TS_17_A,3,test,R,85,2,820,350,R,1,<rshift>,1,1,421723,353
Control_TS_17_A,3,test,R,86,1,620,350,R,1,<rshift>,1,1,422722,332
Control_TS_17_A,3,test,R,87,1,620,350,P,0,<rshift>,1,0,423722,332
Control_TS_17_A,3,test,R,88,2,820,350,R,1,<rshift>,1,1,424722,321
Control_TS_17_A,3,test,R,89,1,620,350,P,0,<rshift>,1,0,425722,324
Control_TS_17_A,3,test,R,90,3,620,550,R,1,<rshift>,1,1,426722,473
Control_TS_17_A,3,test,R,91,3,620,550,R,1,<rshift>,1,1,427722,404
Control_TS_17_A,3,test,R,92,3,620,550,R,1,<rshift>,1,1,428722,435
Control_TS_17_A,3,test,R,93,1,620,350,R,1,<rshift>,1,1,429722,493
Control_TS_17_A,3,test,R,94,1,620,350,P,0,NONE,0,1,430722,950
Control_TS_17_A,3,test,R,95,1,620,350,P,0,NONE,0,1,431722,950
Control_TS_17_A,3,test,R,96,4,820,550,R,1,<rshift>,1,1,432722,405
Control_TS_17_A,3,test,R,97,1,620,350,P,0,NONE,0,1,433722,950
Control_TS_17_A,3,test,R,98,1,620,350,R,1,NONE,0,0,434722,950
Control_TS_17_A,3,test,R,99,4,820,550,R,1,<rshift>,1,1,435722,628
Control_TS_17_A,3,test,R,100,4,820,550,R,1,<rshift>,1,1,436722,472
Control_TS_17_A,3,test,R,101,1,620,350,R,1,NONE,0,0,437722,950
Control_TS_17_A,3,test,R,102,4,820,550,R,1,<rshift>,1,1,438722,775
Control_TS_17_A,3,test,R,103,1,620,350,P,0,<rshift>,1,0,439722,380
Control_TS_17_A,3,test,R,104,1,620,350,R,1,<rshift>,1,1,440722,515
Control_TS_17_A,3,test,R,105,3,620,550,R,1,<rshift>,1,1,441722,373
Control_TS_17_A,3,test,R,106,3,620,550,R,1,<rshift>,1,1,442722,334
Control_TS_17_A,3,test,R,107,2,820,350,R,1,<rshift>,1,1,443722,294
Control_TS_17_A,3,test,R,108,3,620,550,R,1,<rshift>,1,1,444721,589
Control_TS_17_A,3,test,R,109,1,620,350,R,1,<rshift>,1,1,445722,270
Control_TS_17_A,3,test,R,110,4,820,550,R,1,<rshift>,1,1,446722,276
Control_TS_17_A,3,test,R,111,1,620,350,P,0,<rshift>,1,0,447722,297
Control_TS_17_A,3,test,R,112,3,620,550,R,1,<rshift>,1,1,448722,331
Control_TS_17_A,3,test,R,113,3,620,550,R,1,<rshift>,1,1,449722,330
Control_TS_17_A,3,test,R,114,3,620,550,R,1,<rshift>,1,1,450721,472
Control_TS_17_A,3,test,R,115,3,620,550,R,1,<rshift>,1,1,451722,445
Control_TS_17_A,3,test,R,116,2,820,350,R,1,<rshift>,1,1,452722,419
Control_TS_17_A,3,test,R,117,3,620,550,R,1,<rshift>,1,1,453722,474
Control_TS_17_A,3,test,R,118,4,820,550,R,1,<rshift>,1,1,454722,611
Control_TS_17_A,3,test,R,119,4,820,550,R,1,<rshift>,1,1,455722,494
Control_TS_17_A,3,test,R,120,3,620,550,R,1,<rshift>,1,1,456722,426
Control_TS_17_A,3,test,R,121,1,620,350,R,1,<rshift>,1,1,457722,418
Control_TS_17_A,3,test,R,122,2,820,350,R,1,<rshift>,1,1,458722,351
Control_TS_17_A,3,test,R,123,2,820,350,R,1,<rshift>,1,1,459722,280
Control_TS_17_A,3,test,R,124,1,620,350,R,1,<rshift>,1,1,460722,244
Control_TS_17_A,3,test,R,125,3,620,550,P,0,<rshift>,1,0,461722,307
Control_TS_17_A,3,test,R,126,1,620,350,R,1,<rshift>,1,1,462722,348
Control_TS_17_A,3,test,R,127,4,820,550,R,1,<rshift>,1,1,463722,288
Control_TS_17_A,3,test,R,128,1,620,350,R,1,<rshift>,1,1,464722,361
Control_TS_17_A,3,test,R,129,4,820,550,P,0,<rshift>,1,0,465722,608
Control_TS_17_A,3,test,R,130,4,820,550,R,1,<rshift>,1,1,466722,829
Control_TS_17_A,3,test,R,131,4,820,550,R,1,<rshift>,1,1,467722,593
Control_TS_17_A,3,test,R,132,2,820,350,R,1,<rshift>,1,1,468722,370
Control_TS_17_A,3,test,R,133,3,620,550,P,0,<rshift>,1,0,469721,334
Control_TS_17_A,3,test,R,134,2,820,350,R,1,<rshift>,1,1,470722,315
Control_TS_17_A,3,test,R,135,4,820,550,R,1,<rshift>,1,1,471722,354
Control_TS_17_A,3,test,R,136,3,620,550,R,1,<rshift>,1,1,472722,322
Control_TS_17_A,3,test,R,137,2,820,350,R,1,<rshift>,1,1,473722,320
Control_TS_17_A,3,test,R,138,3,620,550,R,1,<rshift>,1,1,474722,292
Control_TS_17_A,3,test,R,139,4,820,550,R,1,<rshift>,1,1,475722,289
Control_TS_17_A,3,test,R,140,3,620,550,R,1,<rshift>,1,1,476722,332
Control_TS_17_A,3,test,R,141,2,820,350,R,1,<rshift>,1,1,477722,367
Control_TS_17_A,3,test,R,142,1,620,350,R,1,<rshift>,1,1,478722,403
Control_TS_17_A,3,test,R,143,2,820,350,P,0,NONE,0,1,479721,950
Control_TS_17_A,3,test,R,144,1,620,350,R,1,<rshift>,1,1,480721,454
Control_TS_17_A,3,test,R,145,4,820,550,R,1,<rshift>,1,1,481722,354
Control_TS_17_A,3,test,R,146,4,820,550,R,1,<rshift>,1,1,482722,429
Control_TS_17_A,3,test,R,147,3,620,550,R,1,<rshift>,1,1,483722,387
Control_TS_17_A,3,test,R,148,2,820,350,R,1,<rshift>,1,1,484722,381
Control_TS_17_A,3,test,R,149,1,620,350,R,1,<rshift>,1,1,485722,406
Control_TS_17_A,3,test,R,150,1,620,350,R,1,<rshift>,1,1,486722,536
Control_TS_17_A,3,test,R,151,1,620,350,P,0,NONE,0,1,487722,950
Control_TS_17_A,3,test,R,152,4,820,550,R,1,<rshift>,1,1,488722,347
Control_TS_17_A,3,test,R,153,1,620,350,R,1,<rshift>,1,1,489722,331
Control_TS_17_A,3,test,R,154,4,820,550,R,1,<rshift>,1,1,490722,540
Control_TS_17_A,3,test,R,155,1,620,350,R,1,<rshift>,1,1,491722,343
Control_TS_17_A,3,test,R,156,1,620,350,R,1,<rshift>,1,1,492722,310
Control_TS_17_A,3,test,R,157,4,820,550,P,0,<rshift>,1,0,493722,298
Control_TS_17_A,3,test,R,158,3,620,550,P,0,<rshift>,1,0,494722,325
Control_TS_17_A,3,test,R,159,3,620,550,R,1,<rshift>,1,1,495722,480
Control_TS_17_A,3,test,R,160,2,820,350,R,1,<rshift>,1,1,496722,403
Control_TS_17_A,3,test,R,161,3,620,550,R,1,<rshift>,1,1,497722,559
Control_TS_17_A,3,test,R,162,4,820,550,R,1,<rshift>,1,1,498722,368
Control_TS_17_A,3,test,R,163,1,620,350,R,1,<rshift>,1,1,499722,393
Control_TS_17_A,3,test,R,164,1,620,350,P,0,<rshift>,1,0,500722,400
Control_TS_17_A,3,test,R,165,2,820,350,R,1,<rshift>,1,1,501722,388
Control_TS_17_A,3,test,R,166,4,820,550,R,1,<rshift>,1,1,502722,316
Control_TS_17_A,3,test,R,167,2,820,350,P,0,<rshift>,1,0,503722,371
Control_TS_17_A,3,test,R,168,1,620,350,R,1,<rshift>,1,1,504722,375
Control_TS_17_A,3,test,R,169,1,620,350,R,1,<rshift>,1,1,505722,417
Control_TS_17_A,3,test,R,170,1,620,350,R,1,<rshift>,1,1,506722,625
Control_TS_17_A,3,test,R,171,4,820,550,R,1,<rshift>,1,1,507722,283
Control_TS_17_A,3,test,R,172,4,820,550,R,1,<rshift>,1,1,508722,308
Control_TS_17_A,3,test,R,173,1,620,350,R,1,<rshift>,1,1,509722,339
Control_TS_17_A,3,test,R,174,2,820,350,R,1,<rshift>,1,1,510722,348
Control_TS_17_A,3,test,R,175,4,820,550,R,1,<rshift>,1,1,511722,306
Control_TS_17_A,3,test,R,176,2,820,350,R,1,<rshift>,1,1,512722,250
Control_TS_17_A,3,test,R,177,4,820,550,P,0,<rshift>,1,0,513722,262
Control_TS_17_A,3,test,R,178,3,620,550,R,1,<rshift>,1,1,514722,323
Control_TS_17_A,3,test,R,179,2,820,350,R,1,<rshift>,1,1,515722,322
Control_TS_17_A,3,test,R,180,1,620,350,R,1,<rshift>,1,1,516722,296
Control_TS_17_A,3,test,R,181,1,620,350,R,1,<rshift>,1,1,517722,292
Control_TS_17_A,3,test,R,182,3,620,550,R,1,<rshift>,1,1,518722,437
Control_TS_17_A,3,test,R,183,4,820,550,R,1,<rshift>,1,1,519722,665
Control_TS_17_A,3,test,R,184,3,620,550,R,1,<rshift>,1,1,520722,430
Control_TS_17_A,3,test,R,185,1,620,350,R,1,<rshift>,1,1,521722,386
Control_TS_17_A,3,test,R,186,2,820,350,P,0,<rshift>,1,0,522722,329
Control_TS_17_A,3,test,R,187,3,620,550,R,1,<rshift>,1,1,523722,684
Control_TS_17_A,3,test,R,188,4,820,550,R,1,<rshift>,1,1,524721,400
Control_TS_17_A,3,test,R,189,2,820,350,R,1,<rshift>,1,1,525722,530
Control_TS_17_A,3,test,R,190,2,820,350,R,1,<rshift>,1,1,526722,414
Control_TS_17_A,3,test,R,191,4,820,550,P,0,NONE,0,1,527722,950
Control_TS_17_A,3,test,R,192,2,820,350,R,1,<rshift>,1,1,528722,415
Control_TS_17_A,3,test,R,193,4,820,550,R,1,<rshift>,1,1,529722,347
Control_TS_17_A,3,test,R,194,4,820,550,R,1,<rshift>,1,1,530722,493
Control_TS_17_A,3,test,R,195,4,820,550,R,1,<rshift>,1,1,531722,618
Control_TS_17_A,3,test,R,196,3,620,550,R,1,<rshift>,1,1,532722,347
Control_TS_17_A,3,test,R,197,2,820,350,R,1,<rshift>,1,1,533722,372
Control_TS_17_A,3,test,R,198,1,620,350,R,1,<rshift>,1,1,534722,340
Control_TS_17_A,3,test,R,199,4,820,550,P,0,<rshift>,1,0,535722,324
Control_TS_17_A,3,test,R,200,1,620,350,R,1,<rshift>,1,1,536722,463
Control_TS_17_A,3,test,R,201,1,620,350,R,1,<rshift>,1,1,537722,443
Control_TS_17_A,3,test,R,202,1,620,350,R,1,<rshift>,1,1,538722,691
Control_TS_17_A,3,test,R,203,2,820,350,R,1,<rshift>,1,1,539722,545
Control_TS_17_A,3,test,R,204,2,820,350,R,1,<rshift>,1,1,540722,565
Control_TS_17_A,3,test,R,205,3,620,550,R,1,<rshift>,1,1,541722,549
Control_TS_17_A,3,test,R,206,4,820,550,R,1,<rshift>,1,1,542722,462
Control_TS_17_A,3,test,R,207,1,620,350,R,1,NONE,0,0,543722,950
Control_TS_17_A,3,test,R,208,3,620,550,P,0,<rshift>,1,0,544722,137
Control_TS_17_A,3,test,R,209,1,620,350,P,0,<rshift>,1,0,545722,444
Control_TS_17_A,3,test,R,210,4,820,550,R,1,<rshift>,1,1,546722,395
Control_TS_17_A,3,test,R,211,4,820,550,R,1,<rshift>,1,1,547722,470
Control_TS_17_A,3,test,R,212,1,620,350,R,1,<rshift>,1,1,548722,395
Control_TS_17_A,3,test,R,213,2,820,350,P,0,NONE,0,1,549721,951
Control_TS_17_A,3,test,R,214,3,620,550,R,1,<rshift>,1,1,550722,304
Control_TS_17_A,3,test,R,215,1,620,350,R,1,<rshift>,1,1,551722,477
Control_TS_17_A,3,test,R,216,2,820,350,P,0,<rshift>,1,0,552722,338
Control_TS_17_A,3,test,R,217,4,820,550,R,1,<rshift>,1,1,553722,401
Control_TS_17_A,3,test,R,218,3,620,550,R,1,<rshift>,1,1,554722,391
Control_TS_17_A,3,test,R,219,2,820,350,R,1,<rshift>,1,1,555722,366
Control_TS_17_A,3,test,R,220,3,620,550,R,1,<rshift>,1,1,556722,173
Control_TS_17_A,3,test,R,221,4,820,550,R,1,<rshift>,1,1,557722,477
Control_TS_17_A,3,test,R,222,3,620,550,R,1,<rshift>,1,1,558722,515
Control_TS_17_A,3,test,R,223,1,620,350,R,1,<rshift>,1,1,559722,344
Control_TS_17_A,3,test,R,224,3,620,550,R,1,<rshift>,1,1,560722,306
Control_TS_17_A,3,test,R,225,4,820,550,R,1,<rshift>,1,1,561722,357
Control_TS_17_A,3,test,R,226,2,820,350,R,1,<rshift>,1,1,562722,315
Control_TS_17_A,3,test,R,227,3,620,550,R,1,<rshift>,1,1,563722,708
Control_TS_17_A,3,test,R,228,1,620,350,R,1,<rshift>,1,1,564722,550
Control_TS_17_A,3,test,R,229,3,620,550,R,1,<rshift>,1,1,565722,476
Control_TS_17_A,3,test,R,230,3,620,550,R,1,<rshift>,1,1,566722,241
Control_TS_17_A,3,test,R,231,2,820,350,R,1,<rshift>,1,1,567722,284
Control_TS_17_A,3,test,R,232,1,620,350,R,1,<rshift>,1,1,568722,347
Control_TS_17_A,3,test,R,233,4,820,550,P,0,<rshift>,1,0,569722,310
Control_TS_17_A,3,test,R,234,2,820,350,P,0,<rshift>,1,0,570722,295
Control_TS_17_A,3,test,R,235,2,820,350,R,1,<rshift>,1,1,571722,496
Control_TS_17_A,3,test,R,236,2,820,350,P,0,NONE,0,1,572722,950
Control_TS_17_A,3,test,R,237,3,620,550,R,1,<rshift>,1,1,573722,286
Control_TS_17_A,3,test,R,238,4,820,550,R,1,<rshift>,1,1,574722,321
Control_TS_17_A,3,test,R,239,4,820,550,R,1,<rshift>,1,1,575722,383
Control_TS_17_A,3,test,R,240,1,620,350,R,1,<rshift>,1,1,576722,313
Control_TS_17_A,3,test,R,241,2,820,350,R,1,<rshift>,1,1,577722,340
Control_TS_17_A,3,test,R,242,2,820,350,R,1,<rshift>,1,1,578722,349
Control_TS_17_A,3,test,R,243,3,620,550,P,0,<rshift>,1,0,579722,312
Control_TS_17_A,3,test,R,244,1,620,350,R,1,<rshift>,1,1,580722,357
Control_TS_17_A,3,test,R,245,1,620,350,R,1,<rshift>,1,1,581722,450
Control_TS_17_A,3,test,R,246,1,620,350,R,1,<rshift>,1,1,582722,369
Control_TS_17_A,3,test,R,247,4,820,550,P,0,NONE,0,1,583722,950
Control_TS_17_A,3,test,R,248,4,820,550,R,1,<rshift>,1,1,584722,454
Control_TS_17_A,3,test,R,249,1,620,350,P,0,<rshift>,1,0,585722,312
Control_TS_17_A,3,test,R,250,4,820,550,P,0,<rshift>,1,0,586723,461
Control_TS_17_A,3,test,R,251,1,620,350,R,1,<rshift>,1,1,587722,563
Control_TS_17_A,3,test,R,252,4,820,550,R,1,<rshift>,1,1,588722,356
Control_TS_17_A,3,test,R,253,1,620,350,R,1,<rshift>,1,1,589723,438
Control_TS_17_A,3,test,R,254,2,820,350,R,1,<rshift>,1,1,590722,364
Control_TS_17_A,3,test,R,255,3,620,550,R,1,<rshift>,1,1,591722,297
Control_TS_17_A,3,test,R,256,2,820,350,R,1,<rshift>,1,1,592722,465
Control_TS_17_A,3,test,R,257,1,620,350,R,1,<rshift>,1,1,593722,543
Control_TS_17_A,3,test,R,258,2,820,350,R,1,<rshift>,1,1,594722,387
Control_TS_17_A,3,test,R,259,1,620,350,P,0,NONE,0,1,595722,950
Control_TS_17_A,3,test,R,260,4,820,550,R,1,<rshift>,1,1,596722,310
Control_TS_17_A,3,test,R,261,3,620,550,P,0,NONE,0,1,597722,950
Control_TS_17_A,3,test,R,262,1,620,350,P,0,<rshift>,1,0,598722,356
Control_TS_17_A,3,test,R,263,2,820,350,R,1,<rshift>,1,1,599722,495
Control_TS_17_A,3,test,R,264,4,820,550,P,0,NONE,0,1,600722,950
Control_TS_17_A,3,test,R,265,1,620,350,R,1,<rshift>,1,1,601722,478
Control_TS_17_A,3,test,R,266,2,820,350,R,1,<rshift>,1,1,602722,386
Control_TS_17_A,3,test,R,267,3,620,550,R,1,<rshift>,1,1,603722,337
Control_TS_17_A,3,test,R,268,1,620,350,R,1,<rshift>,1,1,604722,348
Control_TS_17_A,3,test,R,269,4,820,550,R,1,<rshift>,1,1,605722,433
Control_TS_17_A,3,test,R,270,3,620,550,R,1,<rshift>,1,1,606722,365
Control_TS_17_A,3,test,R,271,2,820,350,R,1,<rshift>,1,1,607722,318
Control_TS_17_A,3,test,R,272,4,820,550,R,1,<rshift>,1,1,608722,353
Control_TS_17_A,3,test,R,273,3,620,550,R,1,<rshift>,1,1,609722,300
Control_TS_17_A,3,test,R,274,1,620,350,P,0,<rshift>,1,0,610722,353
Control_TS_17_A,3,test,R,275,2,820,350,R,1,<rshift>,1,1,611722,337
Control_TS_17_A,3,test,R,276,4,820,550,R,1,<rshift>,1,1,612722,516
Control_TS_17_A,3,test,R,277,3,620,550,R,1,<rshift>,1,1,613722,323
Control_TS_17_A,3,test,R,278,4,820,550,R,1,<rshift>,1,1,614722,314
Control_TS_17_A,3,test,R,279,3,620,550,R,1,<rshift>,1,1,615722,297
Control_TS_17_A,3,test,R,280,1,620,350,R,1,<rshift>,1,1,616722,315
Control_TS_17_A,3,test,R,281,4,820,550,R,1,<rshift>,1,1,617722,307
Control_TS_17_A,3,test,R,282,3,620,550,R,1,<rshift>,1,1,618722,312
Control_TS_17_A,3,test,R,283,1,620,350,R,1,<rshift>,1,1,619722,369
Control_TS_17_A,3,test,R,284,4,820,550,R,1,<rshift>,1,1,620722,297
Control_TS_17_A,3,test,R,285,3,620,550,R,1,<rshift>,1,1,621722,460
Control_TS_17_A,3,test,R,286,4,820,550,P,0,<rshift>,1,0,622722,324
Control_TS_17_A,3,test,R,287,4,820,550,R,1,<rshift>,1,1,623722,494
Control_TS_17_A,3,test,R,288,2,820,350,R,1,<rshift>,1,1,624722,315
Control_TS_17_A,3,test,R,289,2,820,350,R,1,<rshift>,1,1,625722,576
Control_TS_17_A,3,test,R,290,4,820,550,R,1,<rshift>,1,1,626722,304
Control_TS_17_A,3,test,R,291,2,820,350,R,1,<rshift>,1,1,627722,293
Control_TS_17_A,3,test,R,292,4,820,550,R,1,<rshift>,1,1,628722,288
Control_TS_17_A,3,test,R,293,2,820,350,R,1,<rshift>,1,1,629722,299
Control_TS_17_A,3,test,R,294,1,620,350,R,1,<rshift>,1,1,630722,278
Control_TS_17_A,3,test,R,295,1,620,350,R,1,<rshift>,1,1,631722,275
Control_TS_17_A,3,test,R,296,2,820,350,R,1,<rshift>,1,1,632722,246
Control_TS_17_A,3,test,R,297,1,620,350,R,1,<rshift>,1,1,633721,301
Control_TS_17_A,3,test,R,298,1,620,350,R,1,<rshift>,1,1,634722,383
Control_TS_17_A,3,test,R,299,3,620,550,R,1,<rshift>,1,1,635722,320
Control_TS_17_A,3,test,R,300,3,620,550,P,0,<rshift>,1,0,636722,350
