subnum,block,type,correctresponse,trial,choice,x,y,stim,present,response,responded,corr,starttime,rt
TS_25_A,0,practice,P,1,2,820,350,P,1,NONE,0,0,12725,950
TS_25_A,0,practice,P,2,1,620,350,P,1,NONE,0,0,14718,950
TS_25_A,0,practice,P,3,3,620,550,P,1,NONE,0,0,16711,950
TS_25_A,0,practice,P,4,4,820,550,P,1,NONE,0,0,18706,950
TS_25_A,0,practice,P,5,1,620,350,P,1,NONE,0,0,20698,950
TS_25_A,0,practice,P,6,2,820,350,R,0,NONE,0,1,22690,950
TS_25_A,0,practice,P,7,3,620,550,P,1,NONE,0,0,23654,950
TS_25_A,0,practice,P,8,3,620,550,P,1,<rshift>,1,1,25646,585
TS_25_A,0,practice,P,9,1,620,350,R,0,NONE,0,1,26245,950
TS_25_A,0,practice,P,10,2,820,350,P,1,<rshift>,1,1,27209,531
TS_25_A,1,test,P,1,4,820,550,P,1,<rshift>,1,1,35082,449
TS_25_A,1,test,P,2,2,820,350,P,1,<rshift>,1,1,36082,543
TS_25_A,1,test,P,3,3,620,550,P,1,<rshift>,1,1,37082,404
TS_25_A,1,test,P,4,2,820,350,P,1,<rshift>,1,1,38082,333
TS_25_A,1,test,P,5,2,820,350,P,1,<rshift>,1,1,39082,515
TS_25_A,1,test,P,6,2,820,350,P,1,<rshift>,1,1,40082,301
TS_25_A,1,test,P,7,2,820,350,P,1,<rshift>,1,1,41082,321
TS_25_A,1,test,P,8,2,820,350,P,1,<rshift>,1,1,42082,266
TS_25_A,1,test,P,9,4,820,550,P,1,<rshift>,1,1,43082,373
TS_25_A,1,test,P,10,4,820,550,P,1,<rshift>,1,1,44082,312
TS_25_A,1,test,P,11,3,620,550,P,1,<rshift>,1,1,45082,367
TS_25_A,1,test,P,12,3,620,550,P,1,<rshift>,1,1,46082,364
TS_25_A,1,test,P,13,3,620,550,R,0,<rshift>,1,0,47082,337
TS_25_A,1,test,P,14,3,620,550,R,0,NONE,0,1,48082,950
TS_25_A,1,test,P,15,4,820,550,P,1,<rshift>,1,1,49082,377
TS_25_A,1,test,P,16,1,620,350,P,1,<rshift>,1,1,50082,457
TS_25_A,1,test,P,17,3,620,550,R,0,NONE,0,1,51082,950
TS_25_A,1,test,P,18,4,820,550,P,1,<rshift>,1,1,52082,277
TS_25_A,1,test,P,19,3,620,550,P,1,<rshift>,1,1,53082,672
TS_25_A,1,test,P,20,4,820,550,P,1,<rshift>,1,1,54082,567
TS_25_A,1,test,P,21,4,820,550,R,0,NONE,0,1,55082,950
TS_25_A,1,test,P,22,2,820,350,R,0,<rshift>,1,0,56082,231
TS_25_A,1,test,P,23,2,820,350,P,1,<rshift>,1,1,57082,406
TS_25_A,1,test,P,24,4,820,550,R,0,NONE,0,1,58082,950
TS_25_A,1,test,P,25,4,820,550,P,1,<rshift>,1,1,59081,345
TS_25_A,1,test,P,26,4,820,550,P,1,<rshift>,1,1,60081,384
TS_25_A,1,test,P,27,4,820,550,P,1,<rshift>,1,1,61082,336
TS_25_A,1,test,P,28,2,820,350,P,1,<rshift>,1,1,62082,421
TS_25_A,1,test,P,29,3,620,550,P,1,<rshift>,1,1,63082,461
TS_25_A,1,test,P,30,3,620,550,P,1,<rshift>,1,1,64082,320
TS_25_A,1,test,P,31,3,620,550,P,1,<rshift>,1,1,65082,318
TS_25_A,1,test,P,32,4,820,550,P,1,<rshift>,1,1,66082,339
TS_25_A,1,test,P,33,4,820,550,P,1,<rshift>,1,1,67082,269
TS_25_A,1,test,P,34,2,820,350,P,1,<rshift>,1,1,68082,395
TS_25_A,1,test,P,35,3,620,550,P,1,<rshift>,1,1,69082,412
TS_25_A,1,test,P,36,1,620,350,P,1,<rshift>,1,1,70082,484
TS_25_A,1,test,P,37,3,620,550,P,1,<rshift>,1,1,71082,356
TS_25_A,1,test,P,38,1,620,350,R,0,<rshift>,1,0,72082,355
TS_25_A,1,test,P,39,2,820,350,P,1,<rshift>,1,1,73082,466
TS_25_A,1,test,P,40,4,820,550,P,1,<rshift>,1,1,74082,408
TS_25_A,1,test,P,41,4,820,550,P,1,<rshift>,1,1,75081,319
TS_25_A,1,test,P,42,3,620,550,P,1,<rshift>,1,1,76082,320
TS_25_A,1,test,P,43,2,820,350,P,1,<rshift>,1,1,77082,348
TS_25_A,1,test,P,44,4,820,550,P,1,<rshift>,1,1,78082,298
TS_25_A,1,test,P,45,3,620,550,R,0,<rshift>,1,0,79082,271
TS_25_A,1,test,P,46,2,820,350,R,0,<rshift>,1,0,80082,339
TS_25_A,1,test,P,47,4,820,550,P,1,<rshift>,1,1,81082,430
TS_25_A,1,test,P,48,1,620,350,P,1,<rshift>,1,1,82082,418
TS_25_A,1,test,P,49,1,620,350,P,1,<rshift>,1,1,83082,443
TS_25_A,1,test,P,50,3,620,550,P,1,<rshift>,1,1,84082,465
TS_25_A,1,test,P,51,3,620,550,P,1,<rshift>,1,1,85082,465
TS_25_A,1,test,P,52,1,620,350,P,1,<rshift>,1,1,86081,515
TS_25_A,1,test,P,53,3,620,550,P,1,<rshift>,1,1,87082,348
TS_25_A,1,test,P,54,3,620,550,P,1,<rshift>,1,1,88082,412
TS_25_A,1,test,P,55,3,620,550,R,0,<rshift>,1,0,89082,311
TS_25_A,1,test,P,56,3,620,550,P,1,<rshift>,1,1,90082,487
TS_25_A,1,test,P,57,3,620,550,R,0,NONE,0,1,91082,950
TS_25_A,1,test,P,58,2,820,350,P,1,<rshift>,1,1,92081,551
TS_25_A,1,test,P,59,1,620,350,P,1,<rshift>,1,1,93082,338
TS_25_A,1,test,P,60,4,820,550,R,0,NONE,0,1,94082,950
TS_25_A,1,test,P,61,4,820,550,R,0,<rshift>,1,0,95082,428
TS_25_A,1,test,P,62,1,620,350,P,1,<rshift>,1,1,96082,454
TS_25_A,1,test,P,63,1,620,350,P,1,<rshift>,1,1,97082,430
TS_25_A,1,test,P,64,4,820,550,P,1,<rshift>,1,1,98082,520
TS_25_A,1,test,P,65,2,820,350,R,0,NONE,0,1,99082,950
TS_25_A,1,test,P,66,1,620,350,P,1,<rshift>,1,1,100081,326
TS_25_A,1,test,P,67,3,620,550,P,1,<rshift>,1,1,101082,486
TS_25_A,1,test,P,68,2,820,350,P,1,<rshift>,1,1,102082,397
TS_25_A,1,test,P,69,4,820,550,P,1,<rshift>,1,1,103082,262
TS_25_A,1,test,P,70,2,820,350,P,1,<rshift>,1,1,104082,316
TS_25_A,1,test,P,71,4,820,550,R,0,NONE,0,1,105082,950
TS_25_A,1,test,P,72,2,820,350,P,1,<rshift>,1,1,106081,357
TS_25_A,1,test,P,73,1,620,350,P,1,<rshift>,1,1,107082,488
TS_25_A,1,test,P,74,2,820,350,R,0,NONE,0,1,108082,950
TS_25_A,1,test,P,75,4,820,550,R,0,NONE,0,1,109082,950
TS_25_A,1,test,P,76,3,620,550,P,1,<rshift>,1,1,110082,457
TS_25_A,1,test,P,77,2,820,350,P,1,<rshift>,1,1,111082,289
TS_25_A,1,test,P,78,4,820,550,P,1,<rshift>,1,1,112082,328
TS_25_A,1,test,P,79,1,620,350,R,0,<rshift>,1,0,113082,384
TS_25_A,1,test,P,80,3,620,550,P,1,<rshift>,1,1,114081,455
TS_25_A,1,test,P,81,3,620,550,P,1,<rshift>,1,1,115082,515
TS_25_A,1,test,P,82,4,820,550,R,0,NONE,0,1,116082,950
TS_25_A,1,test,P,83,2,820,350,R,0,<rshift>,1,0,117082,295
TS_25_A,1,test,P,84,3,620,550,P,1,<rshift>,1,1,118082,393
TS_25_A,1,test,P,85,1,620,350,P,1,<rshift>,1,1,119082,441
TS_25_A,1,test,P,86,4,820,550,P,1,<rshift>,1,1,120082,481
TS_25_A,1,test,P,87,4,820,550,P,1,<rshift>,1,1,121082,397
TS_25_A,1,test,P,88,3,620,550,P,1,<rshift>,1,1,122082,331
TS_25_A,1,test,P,89,3,620,550,R,0,<rshift>,1,0,123082,304
TS_25_A,1,test,P,90,2,820,350,P,1,<rshift>,1,1,124082,490
TS_25_A,1,test,P,91,1,620,350,P,1,<rshift>,1,1,125082,372
TS_25_A,1,test,P,92,4,820,550,P,1,<rshift>,1,1,126082,341
TS_25_A,1,test,P,93,2,820,350,P,1,<rshift>,1,1,127082,567
TS_25_A,1,test,P,94,2,820,350,R,0,NONE,0,1,128082,950
TS_25_A,1,test,P,95,3,620,550,R,0,<rshift>,1,0,129082,338
TS_25_A,1,test,P,96,2,820,350,P,1,<rshift>,1,1,130082,530
TS_25_A,1,test,P,97,3,620,550,P,1,<rshift>,1,1,131082,480
TS_25_A,1,test,P,98,2,820,350,R,0,<rshift>,1,0,132082,320
TS_25_A,1,test,P,99,4,820,550,P,1,<rshift>,1,1,133082,341
TS_25_A,1,test,P,100,3,620,550,R,0,NONE,0,1,134082,950
TS_25_A,1,test,P,101,4,820,550,P,1,<rshift>,1,1,135082,394
TS_25_A,1,test,P,102,4,820,550,R,0,NONE,0,1,136081,950
TS_25_A,1,test,P,103,1,620,350,P,1,<rshift>,1,1,137082,396
TS_25_A,1,test,P,104,3,620,550,P,1,<rshift>,1,1,138082,417
TS_25_A,1,test,P,105,3,620,550,P,1,<rshift>,1,1,139082,316
TS_25_A,1,test,P,106,3,620,550,P,1,<rshift>,1,1,140082,308
TS_25_A,1,test,P,107,2,820,350,P,1,<rshift>,1,1,141082,540
TS_25_A,1,test,P,108,2,820,350,P,1,<rshift>,1,1,142082,332
TS_25_A,1,test,P,109,4,820,550,P,1,<rshift>,1,1,143082,346
TS_25_A,1,test,P,110,1,620,350,P,1,<rshift>,1,1,144082,343
TS_25_A,1,test,P,111,3,620,550,P,1,<rshift>,1,1,145082,370
TS_25_A,1,test,P,112,3,620,550,P,1,<rshift>,1,1,146082,339
TS_25_A,1,test,P,113,3,620,550,P,1,<rshift>,1,1,147081,322
TS_25_A,1,test,P,114,3,620,550,P,1,<rshift>,1,1,148082,318
TS_25_A,1,test,P,115,3,620,550,R,0,NONE,0,1,149082,950
TS_25_A,1,test,P,116,4,820,550,R,0,<rshift>,1,0,150081,372
TS_25_A,1,test,P,117,2,820,350,P,1,<rshift>,1,1,151082,634
TS_25_A,1,test,P,118,1,620,350,P,1,<rshift>,1,1,152082,377
TS_25_A,1,test,P,119,2,820,350,P,1,<rshift>,1,1,153082,306
TS_25_A,1,test,P,120,1,620,350,P,1,<rshift>,1,1,154082,391
TS_25_A,1,test,P,121,4,820,550,P,1,<rshift>,1,1,155082,398
TS_25_A,1,test,P,122,2,820,350,P,1,<rshift>,1,1,156082,361
TS_25_A,1,test,P,123,3,620,550,P,1,<rshift>,1,1,157082,481
TS_25_A,1,test,P,124,1,620,350,P,1,<rshift>,1,1,158082,289
TS_25_A,1,test,P,125,4,820,550,P,1,<rshift>,1,1,159082,376
TS_25_A,1,test,P,126,1,620,350,R,0,<rshift>,1,0,160082,334
TS_25_A,1,test,P,127,3,620,550,P,1,<rshift>,1,1,161082,450
TS_25_A,1,test,P,128,3,620,550,P,1,<rshift>,1,1,162082,481
TS_25_A,1,test,P,129,4,820,550,P,1,<rshift>,1,1,163082,384
TS_25_A,1,test,P,130,2,820,350,P,1,<rshift>,1,1,164083,360
TS_25_A,1,test,P,131,3,620,550,P,1,<rshift>,1,1,165082,374
TS_25_A,1,test,P,132,1,620,350,P,1,<rshift>,1,1,166082,428
TS_25_A,1,test,P,133,3,620,550,P,1,<rshift>,1,1,167082,402
TS_25_A,1,test,P,134,1,620,350,P,1,<rshift>,1,1,168082,368
TS_25_A,1,test,P,135,1,620,350,P,1,<rshift>,1,1,169082,327
TS_25_A,1,test,P,136,1,620,350,P,1,<rshift>,1,1,170082,338
TS_25_A,1,test,P,137,1,620,350,P,1,<rshift>,1,1,171082,328
TS_25_A,1,test,P,138,2,820,350,P,1,<rshift>,1,1,172082,420
TS_25_A,1,test,P,139,2,820,350,P,1,<rshift>,1,1,173082,387
TS_25_A,1,test,P,140,1,620,350,P,1,<rshift>,1,1,174081,419
TS_25_A,1,test,P,141,2,820,350,P,1,<rshift>,1,1,175082,386
TS_25_A,1,test,P,142,1,620,350,P,1,<rshift>,1,1,176082,313
TS_25_A,1,test,P,143,1,620,350,P,1,<rshift>,1,1,177082,353
TS_25_A,1,test,P,144,1,620,350,P,1,<rshift>,1,1,178082,301
TS_25_A,1,test,P,145,4,820,550,P,1,<rshift>,1,1,179082,331
TS_25_A,1,test,P,146,3,620,550,P,1,<rshift>,1,1,180082,289
TS_25_A,1,test,P,147,2,820,350,P,1,<rshift>,1,1,181082,337
TS_25_A,1,test,P,148,4,820,550,P,1,<rshift>,1,1,182082,295
TS_25_A,1,test,P,149,1,620,350,P,1,<rshift>,1,1,183082,284
TS_25_A,1,test,P,150,4,820,550,P,1,<rshift>,1,1,184082,272
TS_25_A,1,test,P,151,2,820,350,P,1,<rshift>,1,1,185082,363
TS_25_A,1,test,P,152,3,620,550,P,1,<rshift>,1,1,186082,377
TS_25_A,1,test,P,153,4,820,550,P,1,<rshift>,1,1,187082,317
TS_25_A,1,test,P,154,4,820,550,P,1,<rshift>,1,1,188082,361
TS_25_A,1,test,P,155,1,620,350,P,1,<rshift>,1,1,189082,392
TS_25_A,1,test,P,156,2,820,350,P,1,<rshift>,1,1,190082,355
TS_25_A,1,test,P,157,1,620,350,P,1,<rshift>,1,1,191081,50
TS_25_A,1,test,P,158,1,620,350,P,1,<rshift>,1,1,192082,611
TS_25_A,1,test,P,159,4,820,550,P,1,<rshift>,1,1,193082,383
TS_25_A,1,test,P,160,1,620,350,P,1,<rshift>,1,1,194082,437
TS_25_A,1,test,P,161,2,820,350,P,1,<rshift>,1,1,195082,434
TS_25_A,1,test,P,162,2,820,350,P,1,<rshift>,1,1,196082,441
TS_25_A,1,test,P,163,1,620,350,P,1,<rshift>,1,1,197081,514
TS_25_A,1,test,P,164,2,820,350,R,0,<rshift>,1,0,198082,304
TS_25_A,1,test,P,165,2,820,350,R,0,NONE,0,1,199082,950
TS_25_A,1,test,P,166,1,620,350,P,1,<rshift>,1,1,200081,465
TS_25_A,1,test,P,167,2,820,350,P,1,<rshift>,1,1,201082,452
TS_25_A,1,test,P,168,3,620,550,P,1,<rshift>,1,1,202082,442
TS_25_A,1,test,P,169,2,820,350,P,1,<rshift>,1,1,203082,274
TS_25_A,1,test,P,170,3,620,550,P,1,<rshift>,1,1,204082,321
TS_25_A,1,test,P,171,1,620,350,P,1,NONE,0,0,205082,950
TS_25_A,1,test,P,172,1,620,350,R,0,<rshift>,1,0,206082,352
TS_25_A,1,test,P,173,1,620,350,P,1,<rshift>,1,1,207082,488
TS_25_A,1,test,P,174,1,620,350,P,1,<rshift>,1,1,208082,300
TS_25_A,1,test,P,175,1,620,350,P,1,<rshift>,1,1,209082,343
TS_25_A,1,test,P,176,4,820,550,P,1,<rshift>,1,1,210082,430
TS_25_A,1,test,P,177,4,820,550,R,0,<rshift>,1,0,211082,314
TS_25_A,1,test,P,178,3,620,550,P,1,<rshift>,1,1,212082,310
TS_25_A,1,test,P,179,3,620,550,P,1,<rshift>,1,1,213082,368
TS_25_A,1,test,P,180,4,820,550,P,1,<rshift>,1,1,214082,340
TS_25_A,1,test,P,181,1,620,350,R,0,NONE,0,1,215082,950
TS_25_A,1,test,P,182,4,820,550,P,1,<rshift>,1,1,216081,414
TS_25_A,1,test,P,183,4,820,550,P,1,<rshift>,1,1,217082,488
TS_25_A,1,test,P,184,2,820,350,R,0,NONE,0,1,218082,950
TS_25_A,1,test,P,185,1,620,350,P,1,<rshift>,1,1,219082,562
TS_25_A,1,test,P,186,3,620,550,P,1,<rshift>,1,1,220082,300
TS_25_A,1,test,P,187,3,620,550,P,1,<rshift>,1,1,221082,346
TS_25_A,1,test,P,188,1,620,350,P,1,<rshift>,1,1,222082,286
TS_25_A,1,test,P,189,1,620,350,P,1,<rshift>,1,1,223081,303
TS_25_A,1,test,P,190,4,820,550,R,0,NONE,0,1,224082,950
TS_25_A,1,test,P,191,3,620,550,P,1,<rshift>,1,1,225082,440
TS_25_A,1,test,P,192,4,820,550,P,1,<rshift>,1,1,226082,534
TS_25_A,1,test,P,193,2,820,350,R,0,<rshift>,1,0,227082,355
TS_25_A,1,test,P,194,3,620,550,R,0,<rshift>,1,0,228082,538
TS_25_A,1,test,P,195,1,620,350,P,1,<rshift>,1,1,229082,452
TS_25_A,1,test,P,196,3,620,550,R,0,NONE,0,1,230082,950
TS_25_A,1,test,P,197,4,820,550,R,0,NONE,0,1,231081,950
TS_25_A,1,test,P,198,1,620,350,P,1,<rshift>,1,1,232082,409
TS_25_A,1,test,P,199,2,820,350,P,1,<rshift>,1,1,233082,420
TS_25_A,1,test,P,200,2,820,350,P,1,<rshift>,1,1,234082,466
TS_25_A,1,test,P,201,1,620,350,P,1,<rshift>,1,1,235081,444
TS_25_A,1,test,P,202,2,820,350,P,1,<rshift>,1,1,236082,402
TS_25_A,1,test,P,203,1,620,350,P,1,<rshift>,1,1,237082,349
TS_25_A,1,test,P,204,3,620,550,P,1,<rshift>,1,1,238082,515
TS_25_A,1,test,P,205,3,620,550,P,1,<rshift>,1,1,239082,402
TS_25_A,1,test,P,206,3,620,550,R,0,NONE,0,1,240082,950
TS_25_A,1,test,P,207,4,820,550,P,1,<rshift>,1,1,241082,482
TS_25_A,1,test,P,208,2,820,350,P,1,<rshift>,1,1,242082,484
TS_25_A,1,test,P,209,3,620,550,P,1,<rshift>,1,1,243082,373
TS_25_A,1,test,P,210,1,620,350,P,1,<rshift>,1,1,244082,428
TS_25_A,1,test,P,211,3,620,550,P,1,<rshift>,1,1,245082,437
TS_25_A,1,test,P,212,2,820,350,P,1,<rshift>,1,1,246082,405
TS_25_A,1,test,P,213,3,620,550,P,1,<rshift>,1,1,247082,401
TS_25_A,1,test,P,214,2,820,350,P,1,<rshift>,1,1,248081,350
TS_25_A,1,test,P,215,1,620,350,P,1,<rshift>,1,1,249082,273
TS_25_A,1,test,P,216,3,620,550,P,1,<rshift>,1,1,250082,324
TS_25_A,1,test,P,217,3,620,550,P,1,<rshift>,1,1,251082,316
TS_25_A,1,test,P,218,3,620,550,P,1,<rshift>,1,1,252082,350
TS_25_A,1,test,P,219,3,620,550,R,0,<rshift>,1,0,253082,309
TS_25_A,1,test,P,220,2,820,350,P,1,<rshift>,1,1,254082,444
TS_25_A,1,test,P,221,4,820,550,P,1,<rshift>,1,1,255082,515
TS_25_A,1,test,P,222,1,620,350,P,1,<rshift>,1,1,256082,444
TS_25_A,1,test,P,223,4,820,550,P,1,<rshift>,1,1,257082,358
TS_25_A,1,test,P,224,3,620,550,R,0,<rshift>,1,0,258082,303
TS_25_A,1,test,P,225,1,620,350,P,1,<rshift>,1,1,259082,498
TS_25_A,1,test,P,226,3,620,550,P,1,<rshift>,1,1,260082,425
TS_25_A,1,test,P,227,4,820,550,P,1,<rshift>,1,1,261082,434
TS_25_A,1,test,P,228,4,820,550,R,0,NONE,0,1,262082,950
TS_25_A,1,test,P,229,1,620,350,R,0,<rshift>,1,0,263082,307
TS_25_A,1,test,P,230,3,620,550,P,1,<rshift>,1,1,264082,387
TS_25_A,1,test,P,231,1,620,350,P,1,<rshift>,1,1,265082,530
TS_25_A,1,test,P,232,4,820,550,P,1,<rshift>,1,1,266082,458
TS_25_A,1,test,P,233,3,620,550,P,1,<rshift>,1,1,267082,389
TS_25_A,1,test,P,234,1,620,350,P,1,<rshift>,1,1,268082,420
TS_25_A,1,test,P,235,4,820,550,P,1,<rshift>,1,1,269081,568
TS_25_A,1,test,P,236,3,620,550,R,0,<rshift>,1,0,270082,336
TS_25_A,1,test,P,237,3,620,550,P,1,<rshift>,1,1,271082,515
TS_25_A,1,test,P,238,4,820,550,P,1,<rshift>,1,1,272082,534
TS_25_A,1,test,P,239,4,820,550,P,1,<rshift>,1,1,273082,514
TS_25_A,1,test,P,240,4,820,550,P,1,<rshift>,1,1,274082,362
TS_25_A,1,test,P,241,4,820,550,R,0,<rshift>,1,0,275082,290
TS_25_A,1,test,P,242,1,620,350,P,1,<rshift>,1,1,276082,494
TS_25_A,1,test,P,243,2,820,350,P,1,<rshift>,1,1,277082,467
TS_25_A,1,test,P,244,4,820,550,P,1,<rshift>,1,1,278082,581
TS_25_A,1,test,P,245,2,820,350,P,1,<rshift>,1,1,279082,414
TS_25_A,1,test,P,246,1,620,350,P,1,<rshift>,1,1,280082,463
TS_25_A,1,test,P,247,2,820,350,R,0,<rshift>,1,0,281082,410
TS_25_A,1,test,P,248,3,620,550,P,1,<rshift>,1,1,282081,474
TS_25_A,1,test,P,249,1,620,350,R,0,NONE,0,1,283082,950
TS_25_A,1,test,P,250,2,820,350,P,1,<rshift>,1,1,284082,449
TS_25_A,1,test,P,251,4,820,550,P,1,<rshift>,1,1,285082,441
TS_25_A,1,test,P,252,4,820,550,P,1,<rshift>,1,1,286082,423
TS_25_A,1,test,P,253,4,820,550,P,1,<rshift>,1,1,287082,349
TS_25_A,1,test,P,254,4,820,550,P,1,<rshift>,1,1,288082,413
TS_25_A,1,test,P,255,2,820,350,P,1,<rshift>,1,1,289082,632
TS_25_A,1,test,P,256,4,820,550,P,1,<rshift>,1,1,290082,458
TS_25_A,1,test,P,257,4,820,550,P,1,<rshift>,1,1,291082,430
TS_25_A,1,test,P,258,4,820,550,P,1,<rshift>,1,1,292082,403
TS_25_A,1,test,P,259,1,620,350,P,1,<rshift>,1,1,293082,493
TS_25_A,1,test,P,260,3,620,550,R,0,NONE,0,1,294082,950
TS_25_A,1,test,P,261,3,620,550,P,1,<rshift>,1,1,295082,493
TS_25_A,1,test,P,262,1,620,350,P,1,<rshift>,1,1,296082,441
TS_25_A,1,test,P,263,3,620,550,P,1,NONE,0,0,297082,950
TS_25_A,1,test,P,264,3,620,550,R,0,NONE,0,1,298082,950
TS_25_A,1,test,P,265,2,820,350,R,0,<rshift>,1,0,299081,314
TS_25_A,1,test,P,266,1,620,350,P,1,<rshift>,1,1,300082,464
TS_25_A,1,test,P,267,3,620,550,R,0,<rshift>,1,0,301082,340
TS_25_A,1,test,P,268,4,820,550,P,1,<rshift>,1,1,302081,442
TS_25_A,1,test,P,269,1,620,350,R,0,NONE,0,1,303082,950
TS_25_A,1,test,P,270,1,620,350,P,1,<rshift>,1,1,304081,425
TS_25_A,1,test,P,271,1,620,350,R,0,<rshift>,1,0,305082,407
TS_25_A,1,test,P,272,3,620,550,P,1,<rshift>,1,1,306082,427
TS_25_A,1,test,P,273,3,620,550,P,1,<rshift>,1,1,307082,530
TS_25_A,1,test,P,274,1,620,350,P,1,<rshift>,1,1,308082,695
TS_25_A,1,test,P,275,1,620,350,R,0,NONE,0,1,309082,950
TS_25_A,1,test,P,276,4,820,550,P,1,<rshift>,1,1,310082,472
TS_25_A,1,test,P,277,2,820,350,P,1,<rshift>,1,1,311082,516
TS_25_A,1,test,P,278,3,620,550,P,1,<rshift>,1,1,312082,399
TS_25_A,1,test,P,279,4,820,550,P,1,<rshift>,1,1,313082,363
TS_25_A,1,test,P,280,2,820,350,P,1,<rshift>,1,1,314082,415
TS_25_A,1,test,P,281,1,620,350,P,1,<rshift>,1,1,315082,853
TS_25_A,1,test,P,282,2,820,350,R,0,<rshift>,1,0,316082,351
TS_25_A,1,test,P,283,3,620,550,P,1,<rshift>,1,1,317082,349
TS_25_A,1,test,P,284,1,620,350,P,1,<rshift>,1,1,318082,362
TS_25_A,1,test,P,285,1,620,350,P,1,<rshift>,1,1,319082,525
TS_25_A,1,test,P,286,4,820,550,P,1,<rshift>,1,1,320082,456
TS_25_A,1,test,P,287,3,620,550,P,1,<rshift>,1,1,321082,494
TS_25_A,1,test,P,288,3,620,550,P,1,<rshift>,1,1,322082,426
TS_25_A,1,test,P,289,1,620,350,P,1,<rshift>,1,1,323082,378
TS_25_A,1,test,P,290,2,820,350,R,0,<rshift>,1,0,324082,362
TS_25_A,1,test,P,291,2,820,350,P,1,<rshift>,1,1,325082,498
TS_25_A,1,test,P,292,4,820,550,P,1,<rshift>,1,1,326082,581
TS_25_A,1,test,P,293,2,820,350,P,1,<rshift>,1,1,327082,475
TS_25_A,1,test,P,294,2,820,350,P,1,<rshift>,1,1,328082,393
TS_25_A,1,test,P,295,2,820,350,P,1,<rshift>,1,1,329082,353
TS_25_A,1,test,P,296,2,820,350,P,1,<rshift>,1,1,330081,370
TS_25_A,1,test,P,297,4,820,550,P,1,<rshift>,1,1,331082,659
TS_25_A,1,test,P,298,2,820,350,P,1,<rshift>,1,1,332082,326
TS_25_A,1,test,P,299,3,620,550,R,0,<rshift>,1,0,333082,312
TS_25_A,1,test,P,300,1,620,350,R,0,<rshift>,1,0,334082,412
TS_25_A,2,practice,R,1,3,620,550,R,1,<rshift>,1,1,344771,665
TS_25_A,2,practice,R,2,3,620,550,R,1,<rshift>,1,1,345771,431
TS_25_A,2,practice,R,3,1,620,350,P,0,NONE,0,1,346771,950
TS_25_A,2,practice,R,4,4,820,550,R,1,<rshift>,1,1,347771,312
TS_25_A,2,practice,R,5,2,820,350,R,1,<rshift>,1,1,348771,447
TS_25_A,2,practice,R,6,1,620,350,R,1,<rshift>,1,1,349771,422
TS_25_A,2,practice,R,7,3,620,550,P,0,<rshift>,1,0,350771,399
TS_25_A,2,practice,R,8,4,820,550,R,1,<rshift>,1,1,352228,616
TS_25_A,2,practice,R,9,4,820,550,R,1,NONE,0,0,352858,950
TS_25_A,2,practice,R,10,3,620,550,R,1,<rshift>,1,1,354854,514
TS_25_A,3,test,R,1,1,620,350,R,1,<rshift>,1,1,361010,538
TS_25_A,3,test,R,2,3,620,550,R,1,<rshift>,1,1,362010,426
TS_25_A,3,test,R,3,1,620,350,R,1,<rshift>,1,1,363010,522
TS_25_A,3,test,R,4,2,820,350,R,1,<rshift>,1,1,364010,355
TS_25_A,3,test,R,5,4,820,550,R,1,<rshift>,1,1,365010,422
TS_25_A,3,test,R,6,4,820,550,R,1,<rshift>,1,1,366010,393
TS_25_A,3,test,R,7,2,820,350,R,1,<rshift>,1,1,367010,356
TS_25_A,3,test,R,8,2,820,350,R,1,<rshift>,1,1,368010,313
TS_25_A,3,test,R,9,1,620,350,R,1,<rshift>,1,1,369010,420
TS_25_A,3,test,R,10,4,820,550,R,1,<rshift>,1,1,370010,445
TS_25_A,3,test,R,11,3,620,550,R,1,<rshift>,1,1,371010,440
TS_25_A,3,test,R,12,4,820,550,R,1,<rshift>,1,1,372010,394
TS_25_A,3,test,R,13,4,820,550,R,1,<rshift>,1,1,373010,439
TS_25_A,3,test,R,14,1,620,350,R,1,<rshift>,1,1,374010,430
TS_25_A,3,test,R,15,3,620,550,R,1,<rshift>,1,1,375010,412
TS_25_A,3,test,R,16,3,620,550,R,1,<rshift>,1,1,376010,454
TS_25_A,3,test,R,17,4,820,550,R,1,<rshift>,1,1,377010,491
TS_25_A,3,test,R,18,2,820,350,P,0,NONE,0,1,378010,950
TS_25_A,3,test,R,19,2,820,350,R,1,<rshift>,1,1,379010,436
TS_25_A,3,test,R,20,3,620,550,R,1,<rshift>,1,1,380009,529
TS_25_A,3,test,R,21,1,620,350,R,1,<rshift>,1,1,381010,377
TS_25_A,3,test,R,22,2,820,350,P,0,<rshift>,1,0,382010,404
TS_25_A,3,test,R,23,4,820,550,R,1,<rshift>,1,1,383010,415
TS_25_A,3,test,R,24,2,820,350,R,1,<rshift>,1,1,384010,451
TS_25_A,3,test,R,25,2,820,350,R,1,<rshift>,1,1,385010,405
TS_25_A,3,test,R,26,4,820,550,R,1,<rshift>,1,1,386010,382
TS_25_A,3,test,R,27,4,820,550,R,1,<rshift>,1,1,387010,348
TS_25_A,3,test,R,28,3,620,550,R,1,<rshift>,1,1,388010,369
TS_25_A,3,test,R,29,1,620,350,R,1,<rshift>,1,1,389010,411
TS_25_A,3,test,R,30,1,620,350,R,1,<rshift>,1,1,390010,361
TS_25_A,3,test,R,31,3,620,550,R,1,<rshift>,1,1,391009,370
TS_25_A,3,test,R,32,4,820,550,R,1,<rshift>,1,1,392010,464
TS_25_A,3,test,R,33,1,620,350,R,1,<rshift>,1,1,393010,717
TS_25_A,3,test,R,34,1,620,350,R,1,<rshift>,1,1,394010,382
TS_25_A,3,test,R,35,3,620,550,R,1,<rshift>,1,1,395010,341
TS_25_A,3,test,R,36,3,620,550,R,1,<rshift>,1,1,396010,311
TS_25_A,3,test,R,37,4,820,550,R,1,<rshift>,1,1,397010,373
TS_25_A,3,test,R,38,3,620,550,P,0,NONE,0,1,398010,950
TS_25_A,3,test,R,39,4,820,550,P,0,<rshift>,1,0,399010,299
TS_25_A,3,test,R,40,1,620,350,R,1,<rshift>,1,1,400010,372
TS_25_A,3,test,R,41,1,620,350,R,1,<rshift>,1,1,401010,393
TS_25_A,3,test,R,42,3,620,550,R,1,<rshift>,1,1,402010,486
TS_25_A,3,test,R,43,3,620,550,R,1,<rshift>,1,1,403010,401
TS_25_A,3,test,R,44,2,820,350,R,1,<rshift>,1,1,404010,428
TS_25_A,3,test,R,45,3,620,550,P,0,<rshift>,1,0,405010,336
TS_25_A,3,test,R,46,3,620,550,R,1,<rshift>,1,1,406010,571
TS_25_A,3,test,R,47,3,620,550,P,0,NONE,0,1,407010,950
TS_25_A,3,test,R,48,3,620,550,P,0,NONE,0,1,408010,950
TS_25_A,3,test,R,49,1,620,350,R,1,<rshift>,1,1,409010,408
TS_25_A,3,test,R,50,4,820,550,R,1,<rshift>,1,1,410010,454
TS_25_A,3,test,R,51,2,820,350,R,1,<rshift>,1,1,411010,408
TS_25_A,3,test,R,52,2,820,350,R,1,<rshift>,1,1,412010,174
TS_25_A,3,test,R,53,3,620,550,P,0,NONE,0,1,413010,950
TS_25_A,3,test,R,54,3,620,550,R,1,<rshift>,1,1,414009,479
TS_25_A,3,test,R,55,4,820,550,R,1,<rshift>,1,1,415010,338
TS_25_A,3,test,R,56,2,820,350,P,0,<rshift>,1,0,416010,296
TS_25_A,3,test,R,57,2,820,350,R,1,<rshift>,1,1,417010,465
TS_25_A,3,test,R,58,3,620,550,R,1,<rshift>,1,1,418010,409
TS_25_A,3,test,R,59,4,820,550,R,1,<rshift>,1,1,419010,461
TS_25_A,3,test,R,60,2,820,350,R,1,<rshift>,1,1,420009,424
TS_25_A,3,test,R,61,3,620,550,P,0,NONE,0,1,421010,950
TS_25_A,3,test,R,62,2,820,350,R,1,<rshift>,1,1,422010,303
TS_25_A,3,test,R,63,3,620,550,R,1,<rshift>,1,1,423010,530
TS_25_A,3,test,R,64,3,620,550,R,1,<rshift>,1,1,424010,417
TS_25_A,3,test,R,65,2,820,350,R,1,<rshift>,1,1,425010,470
TS_25_A,3,test,R,66,2,820,350,R,1,<rshift>,1,1,426010,345
TS_25_A,3,test,R,67,3,620,550,R,1,<rshift>,1,1,427010,338
TS_25_A,3,test,R,68,4,820,550,R,1,<rshift>,1,1,428010,376
TS_25_A,3,test,R,69,4,820,550,R,1,<rshift>,1,1,429010,403
TS_25_A,3,test,R,70,2,820,350,R,1,<rshift>,1,1,430010,306
TS_25_A,3,test,R,71,2,820,350,R,1,<rshift>,1,1,431010,350
TS_25_A,3,test,R,72,3,620,550,R,1,<rshift>,1,1,432010,293
TS_25_A,3,test,R,73,1,620,350,R,1,<rshift>,1,1,433010,300
TS_25_A,3,test,R,74,3,620,550,R,1,<rshift>,1,1,434010,293
TS_25_A,3,test,R,75,1,620,350,R,1,<rshift>,1,1,435010,275
TS_25_A,3,test,R,76,2,820,350,R,1,<rshift>,1,1,436010,283
TS_25_A,3,test,R,77,2,820,350,R,1,<rshift>,1,1,437010,318
TS_25_A,3,test,R,78,1,620,350,P,0,<rshift>,1,0,438010,326
TS_25_A,3,test,R,79,3,620,550,R,1,<rshift>,1,1,439010,383
TS_25_A,3,test,R,80,2,820,350,R,1,<rshift>,1,1,440010,383
TS_25_A,3,test,R,81,1,620,350,R,1,<rshift>,1,1,441010,357
TS_25_A,3,test,R,82,1,620,350,R,1,<rshift>,1,1,442010,441
TS_25_A,3,test,R,83,3,620,550,R,1,<rshift>,1,1,443010,415
TS_25_A,3,test,R,84,4,820,550,R,1,<rshift>,1,1,444010,356
TS_25_A,3,test,R,85,3,620,550,R,1,<rshift>,1,1,445010,314
TS_25_A,3,test,R,86,3,620,550,R,1,<rshift>,1,1,446010,312
TS_25_A,3,test,R,87,3,620,550,R,1,<rshift>,1,1,447010,384
TS_25_A,3,test,R,88,1,620,350,R,1,<rshift>,1,1,448010,428
TS_25_A,3,test,R,89,3,620,550,P,0,<rshift>,1,0,449010,333
TS_25_A,3,test,R,90,3,620,550,R,1,<rshift>,1,1,450010,402
TS_25_A,3,test,R,91,2,820,350,R,1,<rshift>,1,1,451010,449
TS_25_A,3,test,R,92,4,820,550,R,1,<rshift>,1,1,452009,368
TS_25_A,3,test,R,93,1,620,350,R,1,<rshift>,1,1,453010,452
TS_25_A,3,test,R,94,1,620,350,R,1,<rshift>,1,1,454010,407
TS_25_A,3,test,R,95,2,820,350,R,1,<rshift>,1,1,455010,458
TS_25_A,3,test,R,96,3,620,550,R,1,<rshift>,1,1,456010,364
TS_25_A,3,test,R,97,3,620,550,R,1,<rshift>,1,1,457010,447
TS_25_A,3,test,R,98,3,620,550,P,0,NONE,0,1,458010,950
TS_25_A,3,test,R,99,1,620,350,R,1,<rshift>,1,1,459009,434
TS_25_A,3,test,R,100,3,620,550,R,1,<rshift>,1,1,460009,472
TS_25_A,3,test,R,101,1,620,350,P,0,NONE,0,1,461010,950
TS_25_A,3,test,R,102,2,820,350,R,1,<rshift>,1,1,462010,398
TS_25_A,3,test,R,103,1,620,350,R,1,<rshift>,1,1,463010,412
TS_25_A,3,test,R,104,2,820,350,R,1,<rshift>,1,1,464010,466
TS_25_A,3,test,R,105,1,620,350,R,1,<rshift>,1,1,465010,401
TS_25_A,3,test,R,106,3,620,550,R,1,<rshift>,1,1,466010,345
TS_25_A,3,test,R,107,4,820,550,R,1,<rshift>,1,1,467010,479
TS_25_A,3,test,R,108,1,620,350,P,0,NONE,0,1,468010,950
TS_25_A,3,test,R,109,2,820,350,R,1,<rshift>,1,1,469010,268
TS_25_A,3,test,R,110,1,620,350,R,1,<rshift>,1,1,470010,415
TS_25_A,3,test,R,111,2,820,350,R,1,<rshift>,1,1,471010,323
TS_25_A,3,test,R,112,2,820,350,R,1,<rshift>,1,1,472010,347
TS_25_A,3,test,R,113,4,820,550,R,1,<rshift>,1,1,473010,313
TS_25_A,3,test,R,114,4,820,550,R,1,<rshift>,1,1,474010,332
TS_25_A,3,test,R,115,3,620,550,R,1,<rshift>,1,1,475010,454
TS_25_A,3,test,R,116,2,820,350,R,1,<rshift>,1,1,476010,466
TS_25_A,3,test,R,117,1,620,350,R,1,<rshift>,1,1,477010,243
TS_25_A,3,test,R,118,1,620,350,P,0,<rshift>,1,0,478010,377
TS_25_A,3,test,R,119,1,620,350,R,1,<rshift>,1,1,479010,565
TS_25_A,3,test,R,120,1,620,350,R,1,NONE,0,0,480010,950
TS_25_A,3,test,R,121,1,620,350,P,0,NONE,0,1,481009,951
TS_25_A,3,test,R,122,3,620,550,R,1,<rshift>,1,1,482009,443
TS_25_A,3,test,R,123,3,620,550,P,0,NONE,0,1,483010,950
TS_25_A,3,test,R,124,1,620,350,R,1,<rshift>,1,1,484009,527
TS_25_A,3,test,R,125,3,620,550,R,1,NONE,0,0,485010,950
TS_25_A,3,test,R,126,3,620,550,P,0,<rshift>,1,0,486009,480
TS_25_A,3,test,R,127,2,820,350,R,1,<rshift>,1,1,487010,456
TS_25_A,3,test,R,128,4,820,550,R,1,NONE,0,0,488010,950
TS_25_A,3,test,R,129,2,820,350,R,1,<rshift>,1,1,489010,340
TS_25_A,3,test,R,130,3,620,550,R,1,<rshift>,1,1,490010,385
TS_25_A,3,test,R,131,4,820,550,R,1,<rshift>,1,1,491010,338
TS_25_A,3,test,R,132,1,620,350,R,1,<rshift>,1,1,492010,312
TS_25_A,3,test,R,133,4,820,550,R,1,<rshift>,1,1,493010,293
TS_25_A,3,test,R,134,1,620,350,P,0,NONE,0,1,494010,950
TS_25_A,3,test,R,135,4,820,550,R,1,<rshift>,1,1,495010,420
TS_25_A,3,test,R,136,1,620,350,R,1,<rshift>,1,1,496010,492
TS_25_A,3,test,R,137,3,620,550,R,1,<rshift>,1,1,497010,403
TS_25_A,3,test,R,138,3,620,550,P,0,<rshift>,1,0,498010,366
TS_25_A,3,test,R,139,2,820,350,P,0,NONE,0,1,499010,950
TS_25_A,3,test,R,140,2,820,350,P,0,NONE,0,1,500010,950
TS_25_A,3,test,R,141,4,820,550,R,1,<rshift>,1,1,501010,448
TS_25_A,3,test,R,142,1,620,350,P,0,<rshift>,1,0,502009,311
TS_25_A,3,test,R,143,2,820,350,R,1,<rshift>,1,1,503010,388
TS_25_A,3,test,R,144,2,820,350,R,1,<rshift>,1,1,504010,413
TS_25_A,3,test,R,145,1,620,350,R,1,<rshift>,1,1,505010,429
TS_25_A,3,test,R,146,1,620,350,R,1,NONE,0,0,506010,950
TS_25_A,3,test,R,147,2,820,350,R,1,<rshift>,1,1,507010,262
TS_25_A,3,test,R,148,3,620,550,R,1,<rshift>,1,1,508010,354
TS_25_A,3,test,R,149,3,620,550,R,1,<rshift>,1,1,509010,412
TS_25_A,3,test,R,150,3,620,550,R,1,<rshift>,1,1,510010,491
TS_25_A,3,test,R,151,1,620,350,R,1,<rshift>,1,1,511010,369
TS_25_A,3,test,R,152,1,620,350,P,0,<rshift>,1,0,512010,368
TS_25_A,3,test,R,153,3,620,550,R,1,<rshift>,1,1,513009,459
TS_25_A,3,test,R,154,4,820,550,R,1,<rshift>,1,1,514010,374
TS_25_A,3,test,R,155,2,820,350,R,1,<rshift>,1,1,515010,395
TS_25_A,3,test,R,156,2,820,350,P,0,NONE,0,1,516010,950
TS_25_A,3,test,R,157,4,820,550,P,0,NONE,0,1,517010,950
TS_25_A,3,test,R,158,2,820,350,R,1,<rshift>,1,1,518010,517
TS_25_A,3,test,R,159,4,820,550,R,1,<rshift>,1,1,519010,369
TS_25_A,3,test,R,160,1,620,350,R,1,<rshift>,1,1,520010,365
TS_25_A,3,test,R,161,3,620,550,R,1,<rshift>,1,1,521010,353
TS_25_A,3,test,R,162,3,620,550,R,1,<rshift>,1,1,522010,301
TS_25_A,3,test,R,163,3,620,550,P,0,NONE,0,1,523010,950
TS_25_A,3,test,R,164,4,820,550,R,1,<rshift>,1,1,524009,320
TS_25_A,3,test,R,165,3,620,550,R,1,<rshift>,1,1,525010,587
TS_25_A,3,test,R,166,1,620,350,R,1,<rshift>,1,1,526010,370
TS_25_A,3,test,R,167,3,620,550,R,1,<rshift>,1,1,527010,298
TS_25_A,3,test,R,168,1,620,350,R,1,<rshift>,1,1,528010,331
TS_25_A,3,test,R,169,3,620,550,R,1,<rshift>,1,1,529010,313
TS_25_A,3,test,R,170,1,620,350,R,1,<rshift>,1,1,530009,275
TS_25_A,3,test,R,171,4,820,550,P,0,<rshift>,1,0,531010,336
TS_25_A,3,test,R,172,1,620,350,R,1,<rshift>,1,1,532010,515
TS_25_A,3,test,R,173,1,620,350,R,1,<rshift>,1,1,533010,379
TS_25_A,3,test,R,174,3,620,550,R,1,<rshift>,1,1,534009,320
TS_25_A,3,test,R,175,3,620,550,R,1,<rshift>,1,1,535010,380
TS_25_A,3,test,R,176,1,620,350,R,1,<rshift>,1,1,536010,331
TS_25_A,3,test,R,177,3,620,550,R,1,<rshift>,1,1,537010,325
TS_25_A,3,test,R,178,1,620,350,R,1,<rshift>,1,1,538010,272
TS_25_A,3,test,R,179,1,620,350,P,0,<rshift>,1,0,539010,344
TS_25_A,3,test,R,180,1,620,350,R,1,<rshift>,1,1,540010,571
TS_25_A,3,test,R,181,1,620,350,R,1,<rshift>,1,1,541010,452
TS_25_A,3,test,R,182,1,620,350,P,0,NONE,0,1,542010,950
TS_25_A,3,test,R,183,3,620,550,R,1,<rshift>,1,1,543009,431
TS_25_A,3,test,R,184,3,620,550,R,1,<rshift>,1,1,544010,461
TS_25_A,3,test,R,185,4,820,550,R,1,<rshift>,1,1,545010,459
TS_25_A,3,test,R,186,2,820,350,P,0,NONE,0,1,546010,950
TS_25_A,3,test,R,187,1,620,350,P,0,<rshift>,1,0,547010,305
TS_25_A,3,test,R,188,2,820,350,P,0,NONE,0,1,548010,950
TS_25_A,3,test,R,189,2,820,350,P,0,NONE,0,1,549009,951
TS_25_A,3,test,R,190,1,620,350,R,1,<rshift>,1,1,550010,537
TS_25_A,3,test,R,191,4,820,550,P,0,<rshift>,1,0,551010,347
TS_25_A,3,test,R,192,2,820,350,R,1,<rshift>,1,1,552010,482
TS_25_A,3,test,R,193,2,820,350,R,1,<rshift>,1,1,553010,362
TS_25_A,3,test,R,194,1,620,350,R,1,<rshift>,1,1,554010,372
TS_25_A,3,test,R,195,2,820,350,R,1,<rshift>,1,1,555010,364
TS_25_A,3,test,R,196,4,820,550,R,1,<rshift>,1,1,556010,428
TS_25_A,3,test,R,197,4,820,550,R,1,<rshift>,1,1,557010,339
TS_25_A,3,test,R,198,2,820,350,R,1,<rshift>,1,1,558010,404
TS_25_A,3,test,R,199,2,820,350,R,1,<rshift>,1,1,559010,406
TS_25_A,3,test,R,200,4,820,550,P,0,<rshift>,1,0,560010,354
TS_25_A,3,test,R,201,3,620,550,P,0,NONE,0,1,561010,950
TS_25_A,3,test,R,202,4,820,550,R,1,NONE,0,0,562010,950
TS_25_A,3,test,R,203,1,620,350,R,1,<rshift>,1,1,563009,275
TS_25_A,3,test,R,204,2,820,350,R,1,<rshift>,1,1,564010,328
TS_25_A,3,test,R,205,1,620,350,R,1,<rshift>,1,1,565010,361
TS_25_A,3,test,R,206,4,820,550,R,1,<rshift>,1,1,566010,377
TS_25_A,3,test,R,207,3,620,550,R,1,<rshift>,1,1,567010,339
TS_25_A,3,test,R,208,4,820,550,R,1,<rshift>,1,1,568010,343
TS_25_A,3,test,R,209,3,620,550,R,1,<rshift>,1,1,569009,316
TS_25_A,3,test,R,210,3,620,550,R,1,<rshift>,1,1,570010,415
TS_25_A,3,test,R,211,2,820,350,R,1,<rshift>,1,1,571010,313
TS_25_A,3,test,R,212,4,820,550,R,1,<rshift>,1,1,572010,305
TS_25_A,3,test,R,213,2,820,350,R,1,<rshift>,1,1,573010,327
TS_25_A,3,test,R,214,3,620,550,R,1,<rshift>,1,1,574009,164
TS_25_A,3,test,R,215,2,820,350,R,1,<rshift>,1,1,575010,308
TS_25_A,3,test,R,216,3,620,550,R,1,<rshift>,1,1,576010,243
TS_25_A,3,test,R,217,2,820,350,R,1,<rshift>,1,1,577010,324
TS_25_A,3,test,R,218,2,820,350,R,1,<rshift>,1,1,578010,377
TS_25_A,3,test,R,219,2,820,350,R,1,<rshift>,1,1,579010,309
TS_25_A,3,test,R,220,3,620,550,R,1,<rshift>,1,1,580010,342
TS_25_A,3,test,R,221,3,620,550,R,1,<rshift>,1,1,581010,317
TS_25_A,3,test,R,222,3,620,550,R,1,<rshift>,1,1,582010,301
TS_25_A,3,test,R,223,2,820,350,R,1,<rshift>,1,1,583010,338
TS_25_A,3,test,R,224,4,820,550,R,1,<rshift>,1,1,584010,301
TS_25_A,3,test,R,225,1,620,350,R,1,<rshift>,1,1,585010,261
TS_25_A,3,test,R,226,4,820,550,R,1,<rshift>,1,1,586010,267
TS_25_A,3,test,R,227,3,620,550,R,1,<rshift>,1,1,587010,274
TS_25_A,3,test,R,228,4,820,550,P,0,<rshift>,1,0,588010,303
TS_25_A,3,test,R,229,3,620,550,R,1,<rshift>,1,1,589010,514
TS_25_A,3,test,R,230,1,620,350,R,1,<rshift>,1,1,590010,364
TS_25_A,3,test,R,231,2,820,350,R,1,<rshift>,1,1,591010,430
TS_25_A,3,test,R,232,3,620,550,P,0,<rshift>,1,0,592010,303
TS_25_A,3,test,R,233,4,820,550,R,1,<rshift>,1,1,593010,436
TS_25_A,3,test,R,234,3,620,550,P,0,<rshift>,1,0,594010,383
TS_25_A,3,test,R,235,4,820,550,R,1,<rshift>,1,1,595010,409
TS_25_A,3,test,R,236,3,620,550,R,1,NONE,0,0,596010,950
TS_25_A,3,test,R,237,2,820,350,P,0,<rshift>,1,0,597010,284
TS_25_A,3,test,R,238,4,820,550,P,0,<rshift>,1,0,598010,330
TS_25_A,3,test,R,239,3,620,550,R,1,<rshift>,1,1,599010,458
TS_25_A,3,test,R,240,4,820,550,R,1,<rshift>,1,1,600010,447
TS_25_A,3,test,R,241,3,620,550,P,0,NONE,0,1,601010,950
TS_25_A,3,test,R,242,4,820,550,P,0,NONE,0,1,602010,950
TS_25_A,3,test,R,243,4,820,550,P,0,NONE,0,1,603010,950
TS_25_A,3,test,R,244,2,820,350,R,1,<rshift>,1,1,604010,292
TS_25_A,3,test,R,245,4,820,550,P,0,NONE,0,1,605010,950
TS_25_A,3,test,R,246,3,620,550,P,0,NONE,0,1,606010,950
TS_25_A,3,test,R,247,4,820,550,R,1,<rshift>,1,1,607010,515
TS_25_A,3,test,R,248,4,820,550,R,1,<rshift>,1,1,608009,360
TS_25_A,3,test,R,249,2,820,350,R,1,<rshift>,1,1,609010,361
TS_25_A,3,test,R,250,1,620,350,P,0,NONE,0,1,610010,950
TS_25_A,3,test,R,251,4,820,550,P,0,<rshift>,1,0,611010,312
TS_25_A,3,test,R,252,4,820,550,R,1,<rshift>,1,1,612010,515
TS_25_A,3,test,R,253,3,620,550,R,1,<rshift>,1,1,613010,531
TS_25_A,3,test,R,254,3,620,550,P,0,NONE,0,1,614010,950
TS_25_A,3,test,R,255,4,820,550,P,0,<rshift>,1,0,615009,317
TS_25_A,3,test,R,256,1,620,350,R,1,<rshift>,1,1,616010,514
TS_25_A,3,test,R,257,2,820,350,R,1,<rshift>,1,1,617010,495
TS_25_A,3,test,R,258,2,820,350,R,1,NONE,0,0,618010,950
TS_25_A,3,test,R,259,3,620,550,P,0,<rshift>,1,0,619010,286
TS_25_A,3,test,R,260,2,820,350,P,0,<rshift>,1,0,620010,405
TS_25_A,3,test,R,261,4,820,550,P,0,NONE,0,1,621010,950
TS_25_A,3,test,R,262,3,620,550,R,1,NONE,0,0,622009,950
TS_25_A,3,test,R,263,2,820,350,R,1,<rshift>,1,1,623009,293
TS_25_A,3,test,R,264,2,820,350,R,1,<rshift>,1,1,624009,348
TS_25_A,3,test,R,265,2,820,350,R,1,<rshift>,1,1,625010,329
TS_25_A,3,test,R,266,2,820,350,P,0,NONE,0,1,626010,950
TS_25_A,3,test,R,267,4,820,550,R,1,<rshift>,1,1,627010,288
TS_25_A,3,test,R,268,1,620,350,R,1,<rshift>,1,1,628010,553
TS_25_A,3,test,R,269,1,620,350,R,1,<rshift>,1,1,629010,532
TS_25_A,3,test,R,270,3,620,550,R,1,<rshift>,1,1,630010,484
TS_25_A,3,test,R,271,1,620,350,R,1,<rshift>,1,1,631010,495
TS_25_A,3,test,R,272,4,820,550,R,1,<rshift>,1,1,632010,494
TS_25_A,3,test,R,273,2,820,350,R,1,<rshift>,1,1,633010,478
TS_25_A,3,test,R,274,1,620,350,R,1,<rshift>,1,1,634010,394
TS_25_A,3,test,R,275,2,820,350,R,1,<rshift>,1,1,635010,371
TS_25_A,3,test,R,276,3,620,550,R,1,<rshift>,1,1,636010,364
TS_25_A,3,test,R,277,2,820,350,R,1,<rshift>,1,1,637010,407
TS_25_A,3,test,R,278,1,620,350,R,1,<rshift>,1,1,638010,337
TS_25_A,3,test,R,279,4,820,550,R,1,<rshift>,1,1,639009,343
TS_25_A,3,test,R,280,1,620,350,R,1,<rshift>,1,1,640010,496
TS_25_A,3,test,R,281,1,620,350,R,1,<rshift>,1,1,641010,333
TS_25_A,3,test,R,282,4,820,550,R,1,<rshift>,1,1,642010,415
TS_25_A,3,test,R,283,4,820,550,P,0,NONE,0,1,643010,950
TS_25_A,3,test,R,284,4,820,550,R,1,<rshift>,1,1,644010,487
TS_25_A,3,test,R,285,3,620,550,R,1,<rshift>,1,1,645010,447
TS_25_A,3,test,R,286,2,820,350,P,0,<rshift>,1,0,646010,345
TS_25_A,3,test,R,287,4,820,550,R,1,<rshift>,1,1,647010,452
TS_25_A,3,test,R,288,4,820,550,R,1,<rshift>,1,1,648010,371
TS_25_A,3,test,R,289,1,620,350,P,0,NONE,0,1,649010,950
TS_25_A,3,test,R,290,4,820,550,R,1,<rshift>,1,1,650010,276
TS_25_A,3,test,R,291,1,620,350,P,0,NONE,0,1,651010,950
TS_25_A,3,test,R,292,2,820,350,R,1,<rshift>,1,1,652009,471
TS_25_A,3,test,R,293,4,820,550,R,1,<rshift>,1,1,653010,316
TS_25_A,3,test,R,294,3,620,550,R,1,<rshift>,1,1,654010,334
TS_25_A,3,test,R,295,4,820,550,R,1,<rshift>,1,1,655010,369
TS_25_A,3,test,R,296,1,620,350,R,1,<rshift>,1,1,656010,435
TS_25_A,3,test,R,297,3,620,550,R,1,<rshift>,1,1,657010,396
TS_25_A,3,test,R,298,4,820,550,R,1,<rshift>,1,1,658010,364
TS_25_A,3,test,R,299,2,820,350,R,1,<rshift>,1,1,659009,371
TS_25_A,3,test,R,300,1,620,350,R,1,<rshift>,1,1,660010,452
