subnum,block,type,correctresponse,trial,choice,x,y,stim,present,response,responded,corr,starttime,rt
control_ts_29_B,0,practice,P,1,1,668,332,P,1,<rshift>,1,1,27860,561
control_ts_29_B,0,practice,P,2,1,668,332,P,1,<rshift>,1,1,28870,397
control_ts_29_B,0,practice,P,3,4,868,532,P,1,<rshift>,1,1,29866,356
control_ts_29_B,0,practice,P,4,4,868,532,P,1,<rshift>,1,1,30882,312
control_ts_29_B,0,practice,P,5,3,668,532,P,1,<rshift>,1,1,31858,335
control_ts_29_B,0,practice,P,6,2,868,332,P,1,<rshift>,1,1,32881,247
control_ts_29_B,0,practice,P,7,2,868,332,P,1,<rshift>,1,1,33868,412
control_ts_29_B,0,practice,P,8,3,668,532,R,0,<rshift>,1,0,34870,312
control_ts_29_B,0,practice,P,9,2,868,332,P,1,<rshift>,1,1,36266,452
control_ts_29_B,0,practice,P,10,4,868,532,R,0,NONE,0,1,36869,952
control_ts_29_B,1,test,P,1,4,868,532,P,1,<rshift>,1,1,45758,498
control_ts_29_B,1,test,P,2,1,668,332,P,1,<rshift>,1,1,46778,316
control_ts_29_B,1,test,P,3,4,868,532,R,0,<rshift>,1,0,47767,371
control_ts_29_B,1,test,P,4,1,668,332,P,1,<rshift>,1,1,48765,458
control_ts_29_B,1,test,P,5,4,868,532,P,1,<rshift>,1,1,49752,286
control_ts_29_B,1,test,P,6,3,668,532,P,1,<rshift>,1,1,50769,259
control_ts_29_B,1,test,P,7,1,668,332,P,1,<rshift>,1,1,51770,167
control_ts_29_B,1,test,P,8,1,668,332,P,1,<rshift>,1,1,52752,263
control_ts_29_B,1,test,P,9,2,868,332,P,1,<rshift>,1,1,53766,234
control_ts_29_B,1,test,P,10,3,668,532,R,0,<rshift>,1,0,54775,333
control_ts_29_B,1,test,P,11,3,668,532,R,0,NONE,0,1,55754,951
control_ts_29_B,1,test,P,12,3,668,532,P,1,<rshift>,1,1,56769,476
control_ts_29_B,1,test,P,13,2,868,332,R,0,NONE,0,1,57761,952
control_ts_29_B,1,test,P,14,3,668,532,P,1,<rshift>,1,1,58763,261
control_ts_29_B,1,test,P,15,2,868,332,P,1,<rshift>,1,1,59768,299
control_ts_29_B,1,test,P,16,1,668,332,P,1,<rshift>,1,1,60771,286
control_ts_29_B,1,test,P,17,1,668,332,R,0,<rshift>,1,0,61768,228
control_ts_29_B,1,test,P,18,3,668,532,P,1,<rshift>,1,1,62767,275
control_ts_29_B,1,test,P,19,4,868,532,P,1,<rshift>,1,1,63763,153
control_ts_29_B,1,test,P,20,3,668,532,P,1,<rshift>,1,1,64762,133
control_ts_29_B,1,test,P,21,4,868,532,P,1,<rshift>,1,1,65764,41
control_ts_29_B,1,test,P,22,1,668,332,P,1,<rshift>,1,1,66767,4
control_ts_29_B,1,test,P,23,3,668,532,P,1,<rshift>,1,1,67767,247
control_ts_29_B,1,test,P,24,2,868,332,P,1,<rshift>,1,1,68771,241
control_ts_29_B,1,test,P,25,1,668,332,P,1,<rshift>,1,1,69759,199
control_ts_29_B,1,test,P,26,3,668,532,P,1,<rshift>,1,1,70769,76
control_ts_29_B,1,test,P,27,2,868,332,P,1,<rshift>,1,1,71766,225
control_ts_29_B,1,test,P,28,1,668,332,P,1,<rshift>,1,1,72764,101
control_ts_29_B,1,test,P,29,2,868,332,P,1,NONE,0,0,73768,952
control_ts_29_B,1,test,P,30,1,668,332,P,1,<rshift>,1,1,74763,288
control_ts_29_B,1,test,P,31,2,868,332,P,1,<rshift>,1,1,75769,191
control_ts_29_B,1,test,P,32,3,668,532,P,1,<rshift>,1,1,76752,327
control_ts_29_B,1,test,P,33,1,668,332,P,1,<rshift>,1,1,77768,316
control_ts_29_B,1,test,P,34,4,868,532,R,0,<rshift>,1,0,78765,288
control_ts_29_B,1,test,P,35,3,668,532,P,1,<rshift>,1,1,79767,376
control_ts_29_B,1,test,P,36,1,668,332,P,1,<rshift>,1,1,80769,347
control_ts_29_B,1,test,P,37,3,668,532,P,1,<rshift>,1,1,81765,278
control_ts_29_B,1,test,P,38,4,868,532,P,1,<rshift>,1,1,82768,259
control_ts_29_B,1,test,P,39,3,668,532,P,1,<rshift>,1,1,83765,232
control_ts_29_B,1,test,P,40,1,668,332,P,1,<rshift>,1,1,84769,51
control_ts_29_B,1,test,P,41,1,668,332,P,1,<rshift>,1,1,85768,887
control_ts_29_B,1,test,P,42,1,668,332,P,1,<rshift>,1,1,86764,836
control_ts_29_B,1,test,P,43,2,868,332,P,1,<rshift>,1,1,87753,615
control_ts_29_B,1,test,P,44,4,868,532,R,0,<rshift>,1,0,88767,314
control_ts_29_B,1,test,P,45,1,668,332,P,1,<rshift>,1,1,89770,217
control_ts_29_B,1,test,P,46,3,668,532,P,1,<rshift>,1,1,90777,221
control_ts_29_B,1,test,P,47,3,668,532,R,0,<rshift>,1,0,91768,320
control_ts_29_B,1,test,P,48,4,868,532,P,1,<rshift>,1,1,92763,335
control_ts_29_B,1,test,P,49,1,668,332,P,1,<rshift>,1,1,93752,296
control_ts_29_B,1,test,P,50,3,668,532,P,1,<rshift>,1,1,94769,224
control_ts_29_B,1,test,P,51,2,868,332,P,1,<rshift>,1,1,95753,171
control_ts_29_B,1,test,P,52,4,868,532,R,0,<rshift>,1,0,96767,321
control_ts_29_B,1,test,P,53,3,668,532,P,1,NONE,0,0,97773,952
control_ts_29_B,1,test,P,54,4,868,532,R,0,<rshift>,1,0,98779,312
control_ts_29_B,1,test,P,55,2,868,332,P,1,<rshift>,1,1,99754,322
control_ts_29_B,1,test,P,56,4,868,532,P,1,<rshift>,1,1,100767,273
control_ts_29_B,1,test,P,57,3,668,532,P,1,NONE,0,0,101765,952
control_ts_29_B,1,test,P,58,4,868,532,P,1,<rshift>,1,1,102770,146
control_ts_29_B,1,test,P,59,1,668,332,R,0,<rshift>,1,0,103768,191
control_ts_29_B,1,test,P,60,4,868,532,R,0,NONE,0,1,104764,953
control_ts_29_B,1,test,P,61,2,868,332,P,1,<rshift>,1,1,105771,129
control_ts_29_B,1,test,P,62,4,868,532,P,1,<rshift>,1,1,106752,116
control_ts_29_B,1,test,P,63,1,668,332,P,1,<rshift>,1,1,107752,262
control_ts_29_B,1,test,P,64,4,868,532,P,1,<rshift>,1,1,108753,207
control_ts_29_B,1,test,P,65,4,868,532,P,1,<rshift>,1,1,109752,268
control_ts_29_B,1,test,P,66,1,668,332,P,1,<rshift>,1,1,110769,240
control_ts_29_B,1,test,P,67,1,668,332,P,1,<rshift>,1,1,111767,172
control_ts_29_B,1,test,P,68,2,868,332,P,1,<rshift>,1,1,112767,253
control_ts_29_B,1,test,P,69,1,668,332,P,1,<rshift>,1,1,113753,210
control_ts_29_B,1,test,P,70,3,668,532,R,0,<rshift>,1,0,114764,238
control_ts_29_B,1,test,P,71,1,668,332,P,1,NONE,0,0,115766,952
control_ts_29_B,1,test,P,72,3,668,532,R,0,<rshift>,1,0,116762,248
control_ts_29_B,1,test,P,73,4,868,532,P,1,NONE,0,0,117771,952
control_ts_29_B,1,test,P,74,2,868,332,P,1,<rshift>,1,1,118766,298
control_ts_29_B,1,test,P,75,2,868,332,P,1,<rshift>,1,1,119762,293
control_ts_29_B,1,test,P,76,3,668,532,P,1,<rshift>,1,1,120766,189
control_ts_29_B,1,test,P,77,4,868,532,R,0,<rshift>,1,0,121761,146
control_ts_29_B,1,test,P,78,4,868,532,P,1,<rshift>,1,1,122769,193
control_ts_29_B,1,test,P,79,1,668,332,P,1,NONE,0,0,123766,953
control_ts_29_B,1,test,P,80,2,868,332,P,1,<rshift>,1,1,124767,215
control_ts_29_B,1,test,P,81,2,868,332,P,1,<rshift>,1,1,125772,143
control_ts_29_B,1,test,P,82,2,868,332,R,0,<rshift>,1,0,126765,196
control_ts_29_B,1,test,P,83,2,868,332,P,1,<rshift>,1,1,127774,179
control_ts_29_B,1,test,P,84,2,868,332,P,1,<rshift>,1,1,128761,404
control_ts_29_B,1,test,P,85,2,868,332,P,1,<rshift>,1,1,129776,275
control_ts_29_B,1,test,P,86,2,868,332,P,1,<rshift>,1,1,130771,254
control_ts_29_B,1,test,P,87,4,868,532,P,1,NONE,0,0,131767,951
control_ts_29_B,1,test,P,88,3,668,532,P,1,<rshift>,1,1,132772,203
control_ts_29_B,1,test,P,89,1,668,332,P,1,<rshift>,1,1,133771,247
control_ts_29_B,1,test,P,90,4,868,532,P,1,<rshift>,1,1,134768,128
control_ts_29_B,1,test,P,91,4,868,532,P,1,<rshift>,1,1,135768,258
control_ts_29_B,1,test,P,92,1,668,332,P,1,NONE,0,0,136753,952
control_ts_29_B,1,test,P,93,3,668,532,P,1,<rshift>,1,1,137769,138
control_ts_29_B,1,test,P,94,4,868,532,P,1,<rshift>,1,1,138752,247
control_ts_29_B,1,test,P,95,1,668,332,R,0,<rshift>,1,0,139769,182
control_ts_29_B,1,test,P,96,2,868,332,P,1,<rshift>,1,1,140769,257
control_ts_29_B,1,test,P,97,2,868,332,R,0,<rshift>,1,0,141752,254
control_ts_29_B,1,test,P,98,4,868,532,P,1,<rshift>,1,1,142753,256
control_ts_29_B,1,test,P,99,2,868,332,P,1,NONE,0,0,143769,951
control_ts_29_B,1,test,P,100,3,668,532,P,1,<rshift>,1,1,144752,244
control_ts_29_B,1,test,P,101,3,668,532,P,1,<rshift>,1,1,145761,128
control_ts_29_B,1,test,P,102,2,868,332,P,1,<rshift>,1,1,146753,196
control_ts_29_B,1,test,P,103,2,868,332,R,0,<rshift>,1,0,147761,126
control_ts_29_B,1,test,P,104,2,868,332,P,1,<rshift>,1,1,148770,266
control_ts_29_B,1,test,P,105,3,668,532,P,1,<rshift>,1,1,149768,108
control_ts_29_B,1,test,P,106,4,868,532,R,0,<rshift>,1,0,150767,290
control_ts_29_B,1,test,P,107,3,668,532,P,1,NONE,0,0,151753,951
control_ts_29_B,1,test,P,108,4,868,532,P,1,<rshift>,1,1,152767,284
control_ts_29_B,1,test,P,109,4,868,532,P,1,<rshift>,1,1,153775,202
control_ts_29_B,1,test,P,110,1,668,332,R,0,<rshift>,1,0,154753,93
control_ts_29_B,1,test,P,111,2,868,332,P,1,<rshift>,1,1,155770,229
control_ts_29_B,1,test,P,112,4,868,532,P,1,<rshift>,1,1,156764,222
control_ts_29_B,1,test,P,113,1,668,332,P,1,<rshift>,1,1,157768,105
control_ts_29_B,1,test,P,114,3,668,532,P,1,<rshift>,1,1,158752,244
control_ts_29_B,1,test,P,115,1,668,332,R,0,<rshift>,1,0,159766,166
control_ts_29_B,1,test,P,116,1,668,332,P,1,<rshift>,1,1,160773,52
control_ts_29_B,1,test,P,117,4,868,532,P,1,<rshift>,1,1,161773,98
control_ts_29_B,1,test,P,118,3,668,532,P,1,<rshift>,1,1,162759,200
control_ts_29_B,1,test,P,119,2,868,332,P,1,<rshift>,1,1,163763,97
control_ts_29_B,1,test,P,120,4,868,532,P,1,<rshift>,1,1,164769,4
control_ts_29_B,1,test,P,121,3,668,532,R,0,<rshift>,1,0,165770,315
control_ts_29_B,1,test,P,122,1,668,332,P,1,<rshift>,1,1,166762,487
control_ts_29_B,1,test,P,123,3,668,532,P,1,NONE,0,0,167762,953
control_ts_29_B,1,test,P,124,1,668,332,P,1,<rshift>,1,1,168752,87
control_ts_29_B,1,test,P,125,1,668,332,P,1,<rshift>,1,1,169768,174
control_ts_29_B,1,test,P,126,1,668,332,P,1,<rshift>,1,1,170768,258
control_ts_29_B,1,test,P,127,3,668,532,R,0,<rshift>,1,0,171770,15
control_ts_29_B,1,test,P,128,2,868,332,P,1,<rshift>,1,1,172773,252
control_ts_29_B,1,test,P,129,1,668,332,P,1,<rshift>,1,1,173764,208
control_ts_29_B,1,test,P,130,4,868,532,P,1,<rshift>,1,1,174765,225
control_ts_29_B,1,test,P,131,1,668,332,R,0,NONE,0,1,175771,954
control_ts_29_B,1,test,P,132,4,868,532,R,0,<rshift>,1,0,176769,292
control_ts_29_B,1,test,P,133,3,668,532,P,1,<rshift>,1,1,177759,135
control_ts_29_B,1,test,P,134,3,668,532,P,1,<rshift>,1,1,178767,81
control_ts_29_B,1,test,P,135,2,868,332,P,1,<rshift>,1,1,179767,247
control_ts_29_B,1,test,P,136,3,668,532,P,1,<rshift>,1,1,180775,257
control_ts_29_B,1,test,P,137,2,868,332,P,1,<rshift>,1,1,181768,228
control_ts_29_B,1,test,P,138,1,668,332,P,1,<rshift>,1,1,182754,151
control_ts_29_B,1,test,P,139,3,668,532,R,0,<rshift>,1,0,183754,3
control_ts_29_B,1,test,P,140,4,868,532,P,1,<rshift>,1,1,184767,40
control_ts_29_B,1,test,P,141,2,868,332,P,1,<rshift>,1,1,185763,195
control_ts_29_B,1,test,P,142,3,668,532,P,1,<rshift>,1,1,186772,61
control_ts_29_B,1,test,P,143,4,868,532,P,1,<rshift>,1,1,187768,26
control_ts_29_B,1,test,P,144,1,668,332,P,1,NONE,0,0,188770,952
control_ts_29_B,1,test,P,145,2,868,332,P,1,NONE,0,0,189768,952
control_ts_29_B,1,test,P,146,1,668,332,R,0,NONE,0,1,190767,951
control_ts_29_B,1,test,P,147,2,868,332,P,1,<rshift>,1,1,191769,237
control_ts_29_B,1,test,P,148,3,668,532,P,1,<rshift>,1,1,192762,284
control_ts_29_B,1,test,P,149,1,668,332,R,0,<rshift>,1,0,193763,208
control_ts_29_B,1,test,P,150,3,668,532,P,1,<rshift>,1,1,194765,316
control_ts_29_B,1,test,P,151,4,868,532,P,1,<rshift>,1,1,195769,380
control_ts_29_B,1,test,P,152,2,868,332,P,1,<rshift>,1,1,196754,311
control_ts_29_B,1,test,P,153,1,668,332,R,0,<rshift>,1,0,197774,253
control_ts_29_B,1,test,P,154,1,668,332,R,0,NONE,0,1,198770,952
control_ts_29_B,1,test,P,155,4,868,532,P,1,<rshift>,1,1,199766,243
control_ts_29_B,1,test,P,156,2,868,332,P,1,<rshift>,1,1,200765,160
control_ts_29_B,1,test,P,157,4,868,532,P,1,<rshift>,1,1,201767,140
control_ts_29_B,1,test,P,158,2,868,332,P,1,<rshift>,1,1,202761,200
control_ts_29_B,1,test,P,159,3,668,532,P,1,<rshift>,1,1,203766,187
control_ts_29_B,1,test,P,160,2,868,332,P,1,<rshift>,1,1,204766,115
control_ts_29_B,1,test,P,161,2,868,332,P,1,<rshift>,1,1,205769,3
control_ts_29_B,1,test,P,162,3,668,532,P,1,<rshift>,1,1,206765,141
control_ts_29_B,1,test,P,163,2,868,332,P,1,<rshift>,1,1,207765,166
control_ts_29_B,1,test,P,164,2,868,332,P,1,<rshift>,1,1,208767,40
control_ts_29_B,1,test,P,165,3,668,532,P,1,NONE,0,0,209758,951
control_ts_29_B,1,test,P,166,3,668,532,P,1,<rshift>,1,1,210766,266
control_ts_29_B,1,test,P,167,3,668,532,P,1,<rshift>,1,1,211763,250
control_ts_29_B,1,test,P,168,4,868,532,P,1,<rshift>,1,1,212769,270
control_ts_29_B,1,test,P,169,1,668,332,R,0,<rshift>,1,0,213768,153
control_ts_29_B,1,test,P,170,2,868,332,P,1,<rshift>,1,1,214754,49
control_ts_29_B,1,test,P,171,1,668,332,P,1,<rshift>,1,1,215770,4
control_ts_29_B,1,test,P,172,2,868,332,P,1,<rshift>,1,1,216765,355
control_ts_29_B,1,test,P,173,4,868,532,P,1,<rshift>,1,1,217774,266
control_ts_29_B,1,test,P,174,2,868,332,P,1,<rshift>,1,1,218767,142
control_ts_29_B,1,test,P,175,3,668,532,P,1,<rshift>,1,1,219765,169
control_ts_29_B,1,test,P,176,1,668,332,P,1,NONE,0,0,220775,951
control_ts_29_B,1,test,P,177,2,868,332,R,0,<rshift>,1,0,221754,248
control_ts_29_B,1,test,P,178,1,668,332,P,1,<rshift>,1,1,222775,155
control_ts_29_B,1,test,P,179,2,868,332,P,1,<rshift>,1,1,223768,182
control_ts_29_B,1,test,P,180,2,868,332,P,1,<rshift>,1,1,224763,179
control_ts_29_B,1,test,P,181,1,668,332,P,1,<rshift>,1,1,225769,84
control_ts_29_B,1,test,P,182,1,668,332,P,1,<rshift>,1,1,226759,4
control_ts_29_B,1,test,P,183,1,668,332,R,0,<rshift>,1,0,227768,36
control_ts_29_B,1,test,P,184,2,868,332,P,1,<rshift>,1,1,228760,315
control_ts_29_B,1,test,P,185,3,668,532,P,1,<rshift>,1,1,229762,263
control_ts_29_B,1,test,P,186,1,668,332,P,1,<rshift>,1,1,230768,261
control_ts_29_B,1,test,P,187,4,868,532,P,1,<rshift>,1,1,231766,218
control_ts_29_B,1,test,P,188,3,668,532,R,0,<rshift>,1,0,232758,225
control_ts_29_B,1,test,P,189,4,868,532,P,1,<rshift>,1,1,233774,26
control_ts_29_B,1,test,P,190,1,668,332,P,1,<rshift>,1,1,234769,79
control_ts_29_B,1,test,P,191,4,868,532,P,1,NONE,0,0,235768,952
control_ts_29_B,1,test,P,192,1,668,332,P,1,<rshift>,1,1,236768,293
control_ts_29_B,1,test,P,193,2,868,332,P,1,<rshift>,1,1,237768,218
control_ts_29_B,1,test,P,194,3,668,532,R,0,<rshift>,1,0,238761,125
control_ts_29_B,1,test,P,195,3,668,532,P,1,<rshift>,1,1,239774,35
control_ts_29_B,1,test,P,196,4,868,532,P,1,<rshift>,1,1,240765,62
control_ts_29_B,1,test,P,197,1,668,332,R,0,<rshift>,1,0,241767,162
control_ts_29_B,1,test,P,198,2,868,332,P,1,<rshift>,1,1,242770,268
control_ts_29_B,1,test,P,199,2,868,332,R,0,NONE,0,1,243769,952
control_ts_29_B,1,test,P,200,4,868,532,P,1,<rshift>,1,1,244758,399
control_ts_29_B,1,test,P,201,4,868,532,P,1,<rshift>,1,1,245754,334
control_ts_29_B,1,test,P,202,3,668,532,P,1,<rshift>,1,1,246766,295
control_ts_29_B,1,test,P,203,3,668,532,R,0,<rshift>,1,0,247772,148
control_ts_29_B,1,test,P,204,2,868,332,P,1,<rshift>,1,1,248769,260
control_ts_29_B,1,test,P,205,4,868,532,P,1,<rshift>,1,1,249766,261
control_ts_29_B,1,test,P,206,2,868,332,P,1,<rshift>,1,1,250764,276
control_ts_29_B,1,test,P,207,4,868,532,P,1,<rshift>,1,1,251770,210
control_ts_29_B,1,test,P,208,1,668,332,R,0,<rshift>,1,0,252770,184
control_ts_29_B,1,test,P,209,3,668,532,P,1,<rshift>,1,1,253755,184
control_ts_29_B,1,test,P,210,3,668,532,R,0,<rshift>,1,0,254769,304
control_ts_29_B,1,test,P,211,1,668,332,P,1,<rshift>,1,1,255752,235
control_ts_29_B,1,test,P,212,1,668,332,P,1,<rshift>,1,1,256752,382
control_ts_29_B,1,test,P,213,4,868,532,P,1,<rshift>,1,1,257767,169
control_ts_29_B,1,test,P,214,2,868,332,P,1,<rshift>,1,1,258770,30
control_ts_29_B,1,test,P,215,1,668,332,P,1,<rshift>,1,1,259767,3
control_ts_29_B,1,test,P,216,3,668,532,P,1,<rshift>,1,1,260766,302
control_ts_29_B,1,test,P,217,1,668,332,P,1,<rshift>,1,1,261769,251
control_ts_29_B,1,test,P,218,4,868,532,P,1,<rshift>,1,1,262762,51
control_ts_29_B,1,test,P,219,2,868,332,P,1,<rshift>,1,1,263759,198
control_ts_29_B,1,test,P,220,1,668,332,P,1,<rshift>,1,1,264765,207
control_ts_29_B,1,test,P,221,1,668,332,R,0,<rshift>,1,0,265779,4
control_ts_29_B,1,test,P,222,4,868,532,P,1,<rshift>,1,1,266774,85
control_ts_29_B,1,test,P,223,3,668,532,P,1,<rshift>,1,1,267754,420
control_ts_29_B,1,test,P,224,3,668,532,P,1,<rshift>,1,1,268765,385
control_ts_29_B,1,test,P,225,3,668,532,P,1,<rshift>,1,1,269770,242
control_ts_29_B,1,test,P,226,1,668,332,R,0,NONE,0,1,270767,952
control_ts_29_B,1,test,P,227,1,668,332,P,1,<rshift>,1,1,271767,301
control_ts_29_B,1,test,P,228,2,868,332,P,1,<rshift>,1,1,272767,198
control_ts_29_B,1,test,P,229,3,668,532,P,1,<rshift>,1,1,273770,591
control_ts_29_B,1,test,P,230,4,868,532,P,1,NONE,0,0,274765,953
control_ts_29_B,1,test,P,231,2,868,332,P,1,<rshift>,1,1,275767,234
control_ts_29_B,1,test,P,232,4,868,532,P,1,<rshift>,1,1,276767,103
control_ts_29_B,1,test,P,233,3,668,532,R,0,<rshift>,1,0,277766,63
control_ts_29_B,1,test,P,234,3,668,532,P,1,NONE,0,0,278767,951
control_ts_29_B,1,test,P,235,2,868,332,R,0,<rshift>,1,0,279769,356
control_ts_29_B,1,test,P,236,1,668,332,P,1,<rshift>,1,1,280765,273
control_ts_29_B,1,test,P,237,4,868,532,P,1,<rshift>,1,1,281777,131
control_ts_29_B,1,test,P,238,3,668,532,P,1,<rshift>,1,1,282767,230
control_ts_29_B,1,test,P,239,2,868,332,P,1,<rshift>,1,1,283767,77
control_ts_29_B,1,test,P,240,4,868,532,P,1,<rshift>,1,1,284762,41
control_ts_29_B,1,test,P,241,3,668,532,P,1,<rshift>,1,1,285775,163
control_ts_29_B,1,test,P,242,3,668,532,P,1,<rshift>,1,1,286769,271
control_ts_29_B,1,test,P,243,2,868,332,R,0,<rshift>,1,0,287768,285
control_ts_29_B,1,test,P,244,4,868,532,P,1,<rshift>,1,1,288770,153
control_ts_29_B,1,test,P,245,2,868,332,P,1,<rshift>,1,1,289768,132
control_ts_29_B,1,test,P,246,3,668,532,P,1,<rshift>,1,1,290762,191
control_ts_29_B,1,test,P,247,1,668,332,R,0,<rshift>,1,0,291769,119
control_ts_29_B,1,test,P,248,1,668,332,P,1,<rshift>,1,1,292769,207
control_ts_29_B,1,test,P,249,4,868,532,P,1,<rshift>,1,1,293766,241
control_ts_29_B,1,test,P,250,4,868,532,P,1,<rshift>,1,1,294767,384
control_ts_29_B,1,test,P,251,4,868,532,P,1,<rshift>,1,1,295751,231
control_ts_29_B,1,test,P,252,2,868,332,P,1,NONE,0,0,296774,951
control_ts_29_B,1,test,P,253,3,668,532,P,1,<rshift>,1,1,297769,254
control_ts_29_B,1,test,P,254,4,868,532,P,1,<rshift>,1,1,298753,103
control_ts_29_B,1,test,P,255,3,668,532,R,0,NONE,0,1,299767,952
control_ts_29_B,1,test,P,256,1,668,332,R,0,<rshift>,1,0,300768,400
control_ts_29_B,1,test,P,257,3,668,532,P,1,<rshift>,1,1,301754,237
control_ts_29_B,1,test,P,258,4,868,532,P,1,<rshift>,1,1,302762,117
control_ts_29_B,1,test,P,259,3,668,532,P,1,NONE,0,0,303767,953
control_ts_29_B,1,test,P,260,1,668,332,R,0,<rshift>,1,0,304767,304
control_ts_29_B,1,test,P,261,3,668,532,P,1,<rshift>,1,1,305762,400
control_ts_29_B,1,test,P,262,4,868,532,P,1,<rshift>,1,1,306764,432
control_ts_29_B,1,test,P,263,1,668,332,R,0,NONE,0,1,307764,952
control_ts_29_B,1,test,P,264,2,868,332,P,1,<rshift>,1,1,308767,243
control_ts_29_B,1,test,P,265,3,668,532,P,1,<rshift>,1,1,309763,110
control_ts_29_B,1,test,P,266,4,868,532,R,0,<rshift>,1,0,310766,45
control_ts_29_B,1,test,P,267,1,668,332,P,1,<rshift>,1,1,311768,245
control_ts_29_B,1,test,P,268,2,868,332,P,1,<rshift>,1,1,312771,230
control_ts_29_B,1,test,P,269,2,868,332,R,0,<rshift>,1,0,313767,241
control_ts_29_B,1,test,P,270,4,868,532,P,1,<rshift>,1,1,314753,145
control_ts_29_B,1,test,P,271,2,868,332,R,0,<rshift>,1,0,315752,112
control_ts_29_B,1,test,P,272,2,868,332,P,1,NONE,0,0,316751,952
control_ts_29_B,1,test,P,273,1,668,332,P,1,<rshift>,1,1,317752,219
control_ts_29_B,1,test,P,274,1,668,332,P,1,<rshift>,1,1,318752,469
control_ts_29_B,1,test,P,275,1,668,332,P,1,<rshift>,1,1,319765,555
control_ts_29_B,1,test,P,276,4,868,532,P,1,<rshift>,1,1,320767,180
control_ts_29_B,1,test,P,277,3,668,532,P,1,<rshift>,1,1,321770,253
control_ts_29_B,1,test,P,278,1,668,332,P,1,<rshift>,1,1,322767,44
control_ts_29_B,1,test,P,279,1,668,332,P,1,<rshift>,1,1,323769,70
control_ts_29_B,1,test,P,280,4,868,532,R,0,<rshift>,1,0,324754,228
control_ts_29_B,1,test,P,281,2,868,332,P,1,<rshift>,1,1,325752,276
control_ts_29_B,1,test,P,282,3,668,532,P,1,<rshift>,1,1,326768,222
control_ts_29_B,1,test,P,283,2,868,332,P,1,<rshift>,1,1,327773,73
control_ts_29_B,1,test,P,284,1,668,332,P,1,<rshift>,1,1,328753,122
control_ts_29_B,1,test,P,285,2,868,332,P,1,<rshift>,1,1,329767,32
control_ts_29_B,1,test,P,286,1,668,332,P,1,<rshift>,1,1,330776,94
control_ts_29_B,1,test,P,287,1,668,332,R,0,<rshift>,1,0,331753,110
control_ts_29_B,1,test,P,288,2,868,332,P,1,<rshift>,1,1,332761,223
control_ts_29_B,1,test,P,289,1,668,332,P,1,<rshift>,1,1,333766,286
control_ts_29_B,1,test,P,290,2,868,332,P,1,<rshift>,1,1,334753,225
control_ts_29_B,1,test,P,291,2,868,332,P,1,<rshift>,1,1,335770,234
control_ts_29_B,1,test,P,292,4,868,532,R,0,<rshift>,1,0,336765,184
control_ts_29_B,1,test,P,293,3,668,532,P,1,<rshift>,1,1,337753,225
control_ts_29_B,1,test,P,294,3,668,532,P,1,<rshift>,1,1,338763,140
control_ts_29_B,1,test,P,295,3,668,532,P,1,<rshift>,1,1,339762,299
control_ts_29_B,1,test,P,296,1,668,332,R,0,<rshift>,1,0,340775,248
control_ts_29_B,1,test,P,297,2,868,332,P,1,<rshift>,1,1,341775,236
control_ts_29_B,1,test,P,298,4,868,532,R,0,<rshift>,1,0,342766,266
control_ts_29_B,1,test,P,299,1,668,332,P,1,NONE,0,0,343768,952
control_ts_29_B,1,test,P,300,1,668,332,R,0,<rshift>,1,0,344767,211
control_ts_29_B,2,practice,R,1,4,868,532,P,0,NONE,0,1,354328,952
control_ts_29_B,2,practice,R,2,4,868,532,R,1,<rshift>,1,1,355337,347
control_ts_29_B,2,practice,R,3,2,868,332,R,1,<rshift>,1,1,356339,354
control_ts_29_B,2,practice,R,4,2,868,332,R,1,<rshift>,1,1,357325,245
control_ts_29_B,2,practice,R,5,3,668,532,R,1,<rshift>,1,1,358336,369
control_ts_29_B,2,practice,R,6,1,668,332,P,0,<rshift>,1,0,359332,242
control_ts_29_B,2,practice,R,7,2,868,332,R,1,NONE,0,0,360674,951
control_ts_29_B,2,practice,R,8,3,668,532,R,1,<rshift>,1,1,362702,343
control_ts_29_B,2,practice,R,9,3,668,532,R,1,NONE,0,0,363092,953
control_ts_29_B,2,practice,R,10,3,668,532,R,1,NONE,0,0,365132,951
control_ts_29_B,3,test,R,1,3,668,532,R,1,<rshift>,1,1,369639,464
control_ts_29_B,3,test,R,2,3,668,532,R,1,<rshift>,1,1,370638,342
control_ts_29_B,3,test,R,3,2,868,332,R,1,<rshift>,1,1,371641,283
control_ts_29_B,3,test,R,4,1,668,332,P,0,<rshift>,1,0,372633,258
control_ts_29_B,3,test,R,5,2,868,332,P,0,<rshift>,1,0,373641,234
control_ts_29_B,3,test,R,6,1,668,332,R,1,<rshift>,1,1,374641,238
control_ts_29_B,3,test,R,7,2,868,332,R,1,NONE,0,0,375645,954
control_ts_29_B,3,test,R,8,4,868,532,R,1,<rshift>,1,1,376637,332
control_ts_29_B,3,test,R,9,3,668,532,R,1,<rshift>,1,1,377643,282
control_ts_29_B,3,test,R,10,1,668,332,R,1,<rshift>,1,1,378644,258
control_ts_29_B,3,test,R,11,2,868,332,R,1,<rshift>,1,1,379647,214
control_ts_29_B,3,test,R,12,4,868,532,R,1,<rshift>,1,1,380645,206
control_ts_29_B,3,test,R,13,1,668,332,R,1,<rshift>,1,1,381644,337
control_ts_29_B,3,test,R,14,1,668,332,R,1,<rshift>,1,1,382648,77
control_ts_29_B,3,test,R,15,1,668,332,R,1,<rshift>,1,1,383642,3
control_ts_29_B,3,test,R,16,1,668,332,R,1,<rshift>,1,1,384645,23
control_ts_29_B,3,test,R,17,4,868,532,R,1,<rshift>,1,1,385644,40
control_ts_29_B,3,test,R,18,2,868,332,R,1,<rshift>,1,1,386643,160
control_ts_29_B,3,test,R,19,2,868,332,R,1,<rshift>,1,1,387643,270
control_ts_29_B,3,test,R,20,4,868,532,R,1,<rshift>,1,1,388643,133
control_ts_29_B,3,test,R,21,3,668,532,R,1,<rshift>,1,1,389644,216
control_ts_29_B,3,test,R,22,3,668,532,R,1,<rshift>,1,1,390643,253
control_ts_29_B,3,test,R,23,1,668,332,R,1,NONE,0,0,391643,952
control_ts_29_B,3,test,R,24,3,668,532,R,1,<rshift>,1,1,392628,344
control_ts_29_B,3,test,R,25,3,668,532,R,1,<rshift>,1,1,393628,453
control_ts_29_B,3,test,R,26,2,868,332,R,1,<rshift>,1,1,394644,202
control_ts_29_B,3,test,R,27,4,868,532,R,1,NONE,0,0,395645,952
control_ts_29_B,3,test,R,28,4,868,532,R,1,<rshift>,1,1,396643,279
control_ts_29_B,3,test,R,29,4,868,532,P,0,<rshift>,1,0,397642,81
control_ts_29_B,3,test,R,30,1,668,332,R,1,<rshift>,1,1,398646,101
control_ts_29_B,3,test,R,31,2,868,332,P,0,<rshift>,1,0,399644,62
control_ts_29_B,3,test,R,32,2,868,332,R,1,<rshift>,1,1,400644,465
control_ts_29_B,3,test,R,33,2,868,332,P,0,NONE,0,1,401645,951
control_ts_29_B,3,test,R,34,2,868,332,P,0,NONE,0,1,402646,952
control_ts_29_B,3,test,R,35,4,868,532,R,1,<rshift>,1,1,403638,320
control_ts_29_B,3,test,R,36,4,868,532,P,0,<rshift>,1,0,404642,226
control_ts_29_B,3,test,R,37,3,668,532,P,0,<rshift>,1,0,405638,492
control_ts_29_B,3,test,R,38,3,668,532,R,1,<rshift>,1,1,406652,465
control_ts_29_B,3,test,R,39,1,668,332,R,1,<rshift>,1,1,407645,319
control_ts_29_B,3,test,R,40,3,668,532,P,0,<rshift>,1,0,408644,345
control_ts_29_B,3,test,R,41,4,868,532,P,0,NONE,0,1,409654,953
control_ts_29_B,3,test,R,42,1,668,332,R,1,<rshift>,1,1,410643,192
control_ts_29_B,3,test,R,43,3,668,532,R,1,<rshift>,1,1,411645,357
control_ts_29_B,3,test,R,44,1,668,332,R,1,<rshift>,1,1,412635,350
control_ts_29_B,3,test,R,45,1,668,332,R,1,<rshift>,1,1,413644,268
control_ts_29_B,3,test,R,46,3,668,532,R,1,<rshift>,1,1,414631,194
control_ts_29_B,3,test,R,47,2,868,332,P,0,<rshift>,1,0,415638,260
control_ts_29_B,3,test,R,48,3,668,532,R,1,<rshift>,1,1,416644,207
control_ts_29_B,3,test,R,49,4,868,532,R,1,<rshift>,1,1,417644,217
control_ts_29_B,3,test,R,50,2,868,332,P,0,<rshift>,1,0,418647,5
control_ts_29_B,3,test,R,51,1,668,332,R,1,<rshift>,1,1,419647,301
control_ts_29_B,3,test,R,52,3,668,532,P,0,<rshift>,1,0,420645,334
control_ts_29_B,3,test,R,53,4,868,532,R,1,NONE,0,0,421644,951
control_ts_29_B,3,test,R,54,2,868,332,R,1,<rshift>,1,1,422638,233
control_ts_29_B,3,test,R,55,3,668,532,R,1,<rshift>,1,1,423628,147
control_ts_29_B,3,test,R,56,3,668,532,R,1,<rshift>,1,1,424643,160
control_ts_29_B,3,test,R,57,2,868,332,R,1,<rshift>,1,1,425641,216
control_ts_29_B,3,test,R,58,4,868,532,R,1,<rshift>,1,1,426643,18
control_ts_29_B,3,test,R,59,4,868,532,R,1,<rshift>,1,1,427644,10
control_ts_29_B,3,test,R,60,2,868,332,R,1,<rshift>,1,1,428643,87
control_ts_29_B,3,test,R,61,4,868,532,R,1,<rshift>,1,1,429643,127
control_ts_29_B,3,test,R,62,1,668,332,R,1,<rshift>,1,1,430642,190
control_ts_29_B,3,test,R,63,4,868,532,R,1,<rshift>,1,1,431641,259
control_ts_29_B,3,test,R,64,2,868,332,R,1,<rshift>,1,1,432640,172
control_ts_29_B,3,test,R,65,2,868,332,R,1,<rshift>,1,1,433644,213
control_ts_29_B,3,test,R,66,1,668,332,R,1,<rshift>,1,1,434652,146
control_ts_29_B,3,test,R,67,3,668,532,R,1,<rshift>,1,1,435633,19
control_ts_29_B,3,test,R,68,2,868,332,R,1,<rshift>,1,1,436645,19
control_ts_29_B,3,test,R,69,2,868,332,R,1,<rshift>,1,1,437645,61
control_ts_29_B,3,test,R,70,2,868,332,R,1,<rshift>,1,1,438627,186
control_ts_29_B,3,test,R,71,1,668,332,R,1,<rshift>,1,1,439644,116
control_ts_29_B,3,test,R,72,4,868,532,P,0,<rshift>,1,0,440649,28
control_ts_29_B,3,test,R,73,3,668,532,R,1,<rshift>,1,1,441646,156
control_ts_29_B,3,test,R,74,2,868,332,P,0,<rshift>,1,0,442647,170
control_ts_29_B,3,test,R,75,4,868,532,R,1,<rshift>,1,1,443628,57
control_ts_29_B,3,test,R,76,3,668,532,R,1,<rshift>,1,1,444647,195
control_ts_29_B,3,test,R,77,4,868,532,R,1,<rshift>,1,1,445641,208
control_ts_29_B,3,test,R,78,4,868,532,R,1,<rshift>,1,1,446641,155
control_ts_29_B,3,test,R,79,3,668,532,R,1,NONE,0,0,447645,953
control_ts_29_B,3,test,R,80,3,668,532,R,1,<rshift>,1,1,448630,264
control_ts_29_B,3,test,R,81,1,668,332,R,1,<rshift>,1,1,449645,138
control_ts_29_B,3,test,R,82,2,868,332,R,1,<rshift>,1,1,450642,43
control_ts_29_B,3,test,R,83,1,668,332,R,1,<rshift>,1,1,451647,4
control_ts_29_B,3,test,R,84,1,668,332,R,1,<rshift>,1,1,452645,86
control_ts_29_B,3,test,R,85,2,868,332,R,1,NONE,0,0,453653,951
control_ts_29_B,3,test,R,86,3,668,532,R,1,<rshift>,1,1,454628,226
control_ts_29_B,3,test,R,87,3,668,532,R,1,<rshift>,1,1,455642,111
control_ts_29_B,3,test,R,88,1,668,332,R,1,<rshift>,1,1,456641,171
control_ts_29_B,3,test,R,89,3,668,532,P,0,<rshift>,1,0,457646,33
control_ts_29_B,3,test,R,90,3,668,532,R,1,<rshift>,1,1,458643,107
control_ts_29_B,3,test,R,91,3,668,532,R,1,<rshift>,1,1,459640,145
control_ts_29_B,3,test,R,92,1,668,332,R,1,<rshift>,1,1,460650,66
control_ts_29_B,3,test,R,93,4,868,532,R,1,<rshift>,1,1,461644,117
control_ts_29_B,3,test,R,94,1,668,332,P,0,<rshift>,1,0,462645,139
control_ts_29_B,3,test,R,95,2,868,332,R,1,<rshift>,1,1,463645,3
control_ts_29_B,3,test,R,96,4,868,532,P,0,<rshift>,1,0,464643,26
control_ts_29_B,3,test,R,97,2,868,332,R,1,<rshift>,1,1,465639,11
control_ts_29_B,3,test,R,98,4,868,532,R,1,<rshift>,1,1,466640,624
control_ts_29_B,3,test,R,99,2,868,332,R,1,<rshift>,1,1,467643,289
control_ts_29_B,3,test,R,100,2,868,332,R,1,<rshift>,1,1,468645,24
control_ts_29_B,3,test,R,101,1,668,332,R,1,<rshift>,1,1,469642,66
control_ts_29_B,3,test,R,102,1,668,332,R,1,<rshift>,1,1,470639,98
control_ts_29_B,3,test,R,103,3,668,532,R,1,NONE,0,0,471645,953
control_ts_29_B,3,test,R,104,2,868,332,R,1,<rshift>,1,1,472627,227
control_ts_29_B,3,test,R,105,4,868,532,R,1,<rshift>,1,1,473642,163
control_ts_29_B,3,test,R,106,2,868,332,R,1,<rshift>,1,1,474629,85
control_ts_29_B,3,test,R,107,2,868,332,R,1,NONE,0,0,475645,952
control_ts_29_B,3,test,R,108,1,668,332,R,1,<rshift>,1,1,476643,257
control_ts_29_B,3,test,R,109,2,868,332,R,1,<rshift>,1,1,477645,58
control_ts_29_B,3,test,R,110,4,868,532,P,0,<rshift>,1,0,478643,30
control_ts_29_B,3,test,R,111,4,868,532,R,1,<rshift>,1,1,479642,34
control_ts_29_B,3,test,R,112,1,668,332,R,1,<rshift>,1,1,480643,68
control_ts_29_B,3,test,R,113,2,868,332,R,1,<rshift>,1,1,481645,158
control_ts_29_B,3,test,R,114,2,868,332,R,1,<rshift>,1,1,482644,107
control_ts_29_B,3,test,R,115,2,868,332,R,1,NONE,0,0,483638,951
control_ts_29_B,3,test,R,116,2,868,332,R,1,<rshift>,1,1,484644,222
control_ts_29_B,3,test,R,117,1,668,332,R,1,<rshift>,1,1,485638,215
control_ts_29_B,3,test,R,118,3,668,532,P,0,<rshift>,1,0,486648,74
control_ts_29_B,3,test,R,119,1,668,332,P,0,NONE,0,1,487639,951
control_ts_29_B,3,test,R,120,3,668,532,R,1,<rshift>,1,1,488629,594
control_ts_29_B,3,test,R,121,2,868,332,R,1,<rshift>,1,1,489628,528
control_ts_29_B,3,test,R,122,4,868,532,R,1,<rshift>,1,1,490640,239
control_ts_29_B,3,test,R,123,4,868,532,P,0,<rshift>,1,0,491644,35
control_ts_29_B,3,test,R,124,4,868,532,R,1,<rshift>,1,1,492644,220
control_ts_29_B,3,test,R,125,3,668,532,R,1,<rshift>,1,1,493644,275
control_ts_29_B,3,test,R,126,4,868,532,R,1,<rshift>,1,1,494638,244
control_ts_29_B,3,test,R,127,3,668,532,R,1,<rshift>,1,1,495631,168
control_ts_29_B,3,test,R,128,3,668,532,R,1,<rshift>,1,1,496646,27
control_ts_29_B,3,test,R,129,2,868,332,P,0,<rshift>,1,0,497629,429
control_ts_29_B,3,test,R,130,3,668,532,R,1,<rshift>,1,1,498645,131
control_ts_29_B,3,test,R,131,2,868,332,R,1,<rshift>,1,1,499645,208
control_ts_29_B,3,test,R,132,1,668,332,R,1,<rshift>,1,1,500627,355
control_ts_29_B,3,test,R,133,2,868,332,R,1,<rshift>,1,1,501645,392
control_ts_29_B,3,test,R,134,2,868,332,P,0,<rshift>,1,0,502637,80
control_ts_29_B,3,test,R,135,2,868,332,P,0,NONE,0,1,503638,952
control_ts_29_B,3,test,R,136,2,868,332,R,1,<rshift>,1,1,504635,224
control_ts_29_B,3,test,R,137,3,668,532,P,0,<rshift>,1,0,505644,204
control_ts_29_B,3,test,R,138,3,668,532,R,1,<rshift>,1,1,506629,68
control_ts_29_B,3,test,R,139,4,868,532,R,1,<rshift>,1,1,507643,138
control_ts_29_B,3,test,R,140,4,868,532,R,1,<rshift>,1,1,508642,251
control_ts_29_B,3,test,R,141,3,668,532,R,1,<rshift>,1,1,509629,329
control_ts_29_B,3,test,R,142,3,668,532,R,1,<rshift>,1,1,510653,273
control_ts_29_B,3,test,R,143,4,868,532,R,1,<rshift>,1,1,511643,26
control_ts_29_B,3,test,R,144,3,668,532,R,1,<rshift>,1,1,512627,377
control_ts_29_B,3,test,R,145,3,668,532,R,1,<rshift>,1,1,513629,748
control_ts_29_B,3,test,R,146,2,868,332,R,1,<rshift>,1,1,514651,603
control_ts_29_B,3,test,R,147,3,668,532,P,0,NONE,0,1,515641,952
control_ts_29_B,3,test,R,148,1,668,332,R,1,<rshift>,1,1,516641,274
control_ts_29_B,3,test,R,149,1,668,332,R,1,<rshift>,1,1,517636,170
control_ts_29_B,3,test,R,150,1,668,332,R,1,<rshift>,1,1,518646,248
control_ts_29_B,3,test,R,151,4,868,532,R,1,<rshift>,1,1,519629,152
control_ts_29_B,3,test,R,152,4,868,532,R,1,<rshift>,1,1,520647,31
control_ts_29_B,3,test,R,153,3,668,532,R,1,NONE,0,0,521650,951
control_ts_29_B,3,test,R,154,3,668,532,P,0,<rshift>,1,0,522628,427
control_ts_29_B,3,test,R,155,3,668,532,R,1,<rshift>,1,1,523630,612
control_ts_29_B,3,test,R,156,4,868,532,R,1,<rshift>,1,1,524639,435
control_ts_29_B,3,test,R,157,4,868,532,R,1,<rshift>,1,1,525645,212
control_ts_29_B,3,test,R,158,1,668,332,P,0,<rshift>,1,0,526637,4
control_ts_29_B,3,test,R,159,4,868,532,R,1,<rshift>,1,1,527649,247
control_ts_29_B,3,test,R,160,3,668,532,R,1,<rshift>,1,1,528631,12
control_ts_29_B,3,test,R,161,2,868,332,R,1,NONE,0,0,529651,952
control_ts_29_B,3,test,R,162,2,868,332,P,0,<rshift>,1,0,530643,151
control_ts_29_B,3,test,R,163,3,668,532,R,1,NONE,0,0,531629,952
control_ts_29_B,3,test,R,164,2,868,332,P,0,<rshift>,1,0,532639,106
control_ts_29_B,3,test,R,165,4,868,532,R,1,<rshift>,1,1,533645,96
control_ts_29_B,3,test,R,166,3,668,532,P,0,NONE,0,1,534629,954
control_ts_29_B,3,test,R,167,3,668,532,R,1,<rshift>,1,1,535645,314
control_ts_29_B,3,test,R,168,2,868,332,R,1,<rshift>,1,1,536646,269
control_ts_29_B,3,test,R,169,4,868,532,R,1,NONE,0,0,537645,951
control_ts_29_B,3,test,R,170,2,868,332,R,1,<rshift>,1,1,538628,331
control_ts_29_B,3,test,R,171,4,868,532,R,1,<rshift>,1,1,539627,206
control_ts_29_B,3,test,R,172,2,868,332,R,1,<rshift>,1,1,540646,85
control_ts_29_B,3,test,R,173,3,668,532,R,1,<rshift>,1,1,541644,4
control_ts_29_B,3,test,R,174,1,668,332,R,1,<rshift>,1,1,542643,3
control_ts_29_B,3,test,R,175,3,668,532,R,1,<rshift>,1,1,543645,627
control_ts_29_B,3,test,R,176,3,668,532,R,1,<rshift>,1,1,544643,303
control_ts_29_B,3,test,R,177,4,868,532,P,0,<rshift>,1,0,545645,374
control_ts_29_B,3,test,R,178,1,668,332,R,1,<rshift>,1,1,546645,355
control_ts_29_B,3,test,R,179,1,668,332,R,1,<rshift>,1,1,547641,767
control_ts_29_B,3,test,R,180,2,868,332,P,0,NONE,0,1,548645,952
control_ts_29_B,3,test,R,181,3,668,532,R,1,<rshift>,1,1,549644,108
control_ts_29_B,3,test,R,182,4,868,532,R,1,<rshift>,1,1,550652,65
control_ts_29_B,3,test,R,183,1,668,332,R,1,<rshift>,1,1,551637,58
control_ts_29_B,3,test,R,184,4,868,532,R,1,<rshift>,1,1,552636,250
control_ts_29_B,3,test,R,185,3,668,532,R,1,<rshift>,1,1,553644,266
control_ts_29_B,3,test,R,186,4,868,532,R,1,<rshift>,1,1,554630,282
control_ts_29_B,3,test,R,187,2,868,332,R,1,<rshift>,1,1,555650,206
control_ts_29_B,3,test,R,188,4,868,532,R,1,<rshift>,1,1,556645,250
control_ts_29_B,3,test,R,189,1,668,332,P,0,<rshift>,1,0,557629,228
control_ts_29_B,3,test,R,190,1,668,332,R,1,<rshift>,1,1,558631,192
control_ts_29_B,3,test,R,191,4,868,532,P,0,NONE,0,1,559645,951
control_ts_29_B,3,test,R,192,4,868,532,P,0,<rshift>,1,0,560646,218
control_ts_29_B,3,test,R,193,2,868,332,R,1,<rshift>,1,1,561638,304
control_ts_29_B,3,test,R,194,4,868,532,R,1,<rshift>,1,1,562630,162
control_ts_29_B,3,test,R,195,4,868,532,P,0,<rshift>,1,0,563645,99
control_ts_29_B,3,test,R,196,1,668,332,P,0,<rshift>,1,0,564645,247
control_ts_29_B,3,test,R,197,3,668,532,P,0,<rshift>,1,0,565642,353
control_ts_29_B,3,test,R,198,1,668,332,R,1,NONE,0,0,566646,954
control_ts_29_B,3,test,R,199,2,868,332,R,1,<rshift>,1,1,567629,251
control_ts_29_B,3,test,R,200,1,668,332,P,0,<rshift>,1,0,568645,239
control_ts_29_B,3,test,R,201,3,668,532,P,0,NONE,0,1,569644,952
control_ts_29_B,3,test,R,202,2,868,332,R,1,<rshift>,1,1,570651,302
control_ts_29_B,3,test,R,203,2,868,332,R,1,<rshift>,1,1,571629,326
control_ts_29_B,3,test,R,204,2,868,332,P,0,<rshift>,1,0,572644,247
control_ts_29_B,3,test,R,205,3,668,532,P,0,NONE,0,1,573645,953
control_ts_29_B,3,test,R,206,1,668,332,P,0,<rshift>,1,0,574628,308
control_ts_29_B,3,test,R,207,2,868,332,R,1,<rshift>,1,1,575644,248
control_ts_29_B,3,test,R,208,4,868,532,R,1,<rshift>,1,1,576644,190
control_ts_29_B,3,test,R,209,1,668,332,P,0,NONE,0,1,577643,953
control_ts_29_B,3,test,R,210,1,668,332,R,1,<rshift>,1,1,578633,426
control_ts_29_B,3,test,R,211,3,668,532,P,0,<rshift>,1,0,579643,362
control_ts_29_B,3,test,R,212,1,668,332,R,1,<rshift>,1,1,580641,712
control_ts_29_B,3,test,R,213,1,668,332,R,1,NONE,0,0,581644,951
control_ts_29_B,3,test,R,214,3,668,532,R,1,<rshift>,1,1,582645,643
control_ts_29_B,3,test,R,215,3,668,532,R,1,<rshift>,1,1,583643,410
control_ts_29_B,3,test,R,216,4,868,532,R,1,<rshift>,1,1,584644,67
control_ts_29_B,3,test,R,217,4,868,532,R,1,<rshift>,1,1,585640,694
control_ts_29_B,3,test,R,218,2,868,332,R,1,<rshift>,1,1,586645,557
control_ts_29_B,3,test,R,219,2,868,332,R,1,<rshift>,1,1,587639,461
control_ts_29_B,3,test,R,220,4,868,532,P,0,<rshift>,1,0,588644,639
control_ts_29_B,3,test,R,221,1,668,332,R,1,<rshift>,1,1,589643,604
control_ts_29_B,3,test,R,222,4,868,532,R,1,<rshift>,1,1,590643,194
control_ts_29_B,3,test,R,223,4,868,532,R,1,NONE,0,0,591636,952
control_ts_29_B,3,test,R,224,3,668,532,R,1,<rshift>,1,1,592649,259
control_ts_29_B,3,test,R,225,2,868,332,R,1,<rshift>,1,1,593643,135
control_ts_29_B,3,test,R,226,3,668,532,R,1,<rshift>,1,1,594645,4
control_ts_29_B,3,test,R,227,1,668,332,R,1,NONE,0,0,595642,951
control_ts_29_B,3,test,R,228,3,668,532,R,1,<rshift>,1,1,596645,239
control_ts_29_B,3,test,R,229,3,668,532,R,1,<rshift>,1,1,597645,60
control_ts_29_B,3,test,R,230,4,868,532,P,0,<rshift>,1,0,598645,280
control_ts_29_B,3,test,R,231,2,868,332,R,1,<rshift>,1,1,599645,145
control_ts_29_B,3,test,R,232,3,668,532,R,1,<rshift>,1,1,600645,208
control_ts_29_B,3,test,R,233,1,668,332,R,1,<rshift>,1,1,601647,206
control_ts_29_B,3,test,R,234,1,668,332,R,1,<rshift>,1,1,602643,171
control_ts_29_B,3,test,R,235,3,668,532,R,1,<rshift>,1,1,603644,88
control_ts_29_B,3,test,R,236,1,668,332,R,1,<rshift>,1,1,604644,79
control_ts_29_B,3,test,R,237,1,668,332,R,1,<rshift>,1,1,605629,23
control_ts_29_B,3,test,R,238,1,668,332,R,1,<rshift>,1,1,606644,13
control_ts_29_B,3,test,R,239,1,668,332,P,0,<rshift>,1,0,607640,48
control_ts_29_B,3,test,R,240,3,668,532,R,1,<rshift>,1,1,608642,198
control_ts_29_B,3,test,R,241,2,868,332,R,1,<rshift>,1,1,609629,152
control_ts_29_B,3,test,R,242,4,868,532,R,1,<rshift>,1,1,610637,60
control_ts_29_B,3,test,R,243,2,868,332,R,1,<rshift>,1,1,611636,8
control_ts_29_B,3,test,R,244,3,668,532,R,1,NONE,0,0,612628,952
control_ts_29_B,3,test,R,245,4,868,532,R,1,<rshift>,1,1,613629,156
control_ts_29_B,3,test,R,246,4,868,532,P,0,<rshift>,1,0,614641,91
control_ts_29_B,3,test,R,247,3,668,532,P,0,<rshift>,1,0,615644,42
control_ts_29_B,3,test,R,248,3,668,532,R,1,<rshift>,1,1,616645,4
control_ts_29_B,3,test,R,249,3,668,532,R,1,<rshift>,1,1,617643,81
control_ts_29_B,3,test,R,250,3,668,532,R,1,<rshift>,1,1,618639,168
control_ts_29_B,3,test,R,251,2,868,332,R,1,<rshift>,1,1,619645,158
control_ts_29_B,3,test,R,252,1,668,332,R,1,<rshift>,1,1,620644,103
control_ts_29_B,3,test,R,253,4,868,532,R,1,NONE,0,0,621628,952
control_ts_29_B,3,test,R,254,1,668,332,R,1,<rshift>,1,1,622643,367
control_ts_29_B,3,test,R,255,3,668,532,P,0,<rshift>,1,0,623645,403
control_ts_29_B,3,test,R,256,3,668,532,R,1,<rshift>,1,1,624646,416
control_ts_29_B,3,test,R,257,2,868,332,P,0,<rshift>,1,0,625632,264
control_ts_29_B,3,test,R,258,1,668,332,R,1,NONE,0,0,626641,954
control_ts_29_B,3,test,R,259,4,868,532,R,1,<rshift>,1,1,627635,279
control_ts_29_B,3,test,R,260,3,668,532,R,1,<rshift>,1,1,628640,139
control_ts_29_B,3,test,R,261,3,668,532,R,1,<rshift>,1,1,629645,3
control_ts_29_B,3,test,R,262,3,668,532,R,1,<rshift>,1,1,630648,201
control_ts_29_B,3,test,R,263,3,668,532,P,0,<rshift>,1,0,631636,216
control_ts_29_B,3,test,R,264,1,668,332,R,1,<rshift>,1,1,632639,157
control_ts_29_B,3,test,R,265,4,868,532,R,1,<rshift>,1,1,633629,42
control_ts_29_B,3,test,R,266,1,668,332,R,1,NONE,0,0,634629,952
control_ts_29_B,3,test,R,267,3,668,532,R,1,<rshift>,1,1,635630,396
control_ts_29_B,3,test,R,268,1,668,332,R,1,<rshift>,1,1,636644,376
control_ts_29_B,3,test,R,269,3,668,532,R,1,<rshift>,1,1,637644,14
control_ts_29_B,3,test,R,270,3,668,532,R,1,<rshift>,1,1,638644,56
control_ts_29_B,3,test,R,271,3,668,532,R,1,<rshift>,1,1,639643,82
control_ts_29_B,3,test,R,272,2,868,332,R,1,<rshift>,1,1,640640,189
control_ts_29_B,3,test,R,273,3,668,532,R,1,<rshift>,1,1,641643,262
control_ts_29_B,3,test,R,274,3,668,532,R,1,<rshift>,1,1,642628,157
control_ts_29_B,3,test,R,275,2,868,332,R,1,<rshift>,1,1,643641,74
control_ts_29_B,3,test,R,276,3,668,532,P,0,<rshift>,1,0,644644,211
control_ts_29_B,3,test,R,277,1,668,332,R,1,<rshift>,1,1,645636,305
control_ts_29_B,3,test,R,278,1,668,332,R,1,<rshift>,1,1,646647,225
control_ts_29_B,3,test,R,279,4,868,532,R,1,<rshift>,1,1,647644,78
control_ts_29_B,3,test,R,280,2,868,332,P,0,<rshift>,1,0,648644,400
control_ts_29_B,3,test,R,281,1,668,332,R,1,<rshift>,1,1,649652,152
control_ts_29_B,3,test,R,282,1,668,332,R,1,<rshift>,1,1,650647,337
control_ts_29_B,3,test,R,283,4,868,532,R,1,<rshift>,1,1,651629,252
control_ts_29_B,3,test,R,284,2,868,332,R,1,<rshift>,1,1,652640,436
control_ts_29_B,3,test,R,285,2,868,332,P,0,<rshift>,1,0,653641,194
control_ts_29_B,3,test,R,286,2,868,332,R,1,<rshift>,1,1,654643,243
control_ts_29_B,3,test,R,287,2,868,332,R,1,<rshift>,1,1,655639,546
control_ts_29_B,3,test,R,288,1,668,332,R,1,<rshift>,1,1,656643,467
control_ts_29_B,3,test,R,289,2,868,332,R,1,<rshift>,1,1,657630,314
control_ts_29_B,3,test,R,290,3,668,532,R,1,NONE,0,0,658627,952
control_ts_29_B,3,test,R,291,2,868,332,P,0,<rshift>,1,0,659629,44
control_ts_29_B,3,test,R,292,1,668,332,R,1,<rshift>,1,1,660646,500
control_ts_29_B,3,test,R,293,2,868,332,R,1,NONE,0,0,661644,952
control_ts_29_B,3,test,R,294,4,868,532,R,1,<rshift>,1,1,662644,4
control_ts_29_B,3,test,R,295,2,868,332,R,1,<rshift>,1,1,663627,42
control_ts_29_B,3,test,R,296,2,868,332,R,1,<rshift>,1,1,664639,599
control_ts_29_B,3,test,R,297,2,868,332,R,1,<rshift>,1,1,665648,326
control_ts_29_B,3,test,R,298,3,668,532,P,0,<rshift>,1,0,666628,569
control_ts_29_B,3,test,R,299,1,668,332,R,1,<rshift>,1,1,667643,353
control_ts_29_B,3,test,R,300,1,668,332,R,1,NONE,0,0,668648,953
