subnum,block,type,correctresponse,trial,choice,x,y,stim,present,response,responded,corr,starttime,rt
Control_TS_6_B,0,practice,P,1,2,820,350,R,0,NONE,0,1,24063,950
Control_TS_6_B,0,practice,P,2,3,620,550,P,1,NONE,0,0,25061,950
Control_TS_6_B,0,practice,P,3,4,820,550,P,1,<rshift>,1,1,27024,476
Control_TS_6_B,0,practice,P,4,3,620,550,R,0,NONE,0,1,27508,950
Control_TS_6_B,0,practice,P,5,3,620,550,P,1,<rshift>,1,1,28463,531
Control_TS_6_B,0,practice,P,6,4,820,550,P,1,<rshift>,1,1,29062,578
Control_TS_6_B,0,practice,P,7,1,620,350,P,1,<rshift>,1,1,30061,431
Control_TS_6_B,0,practice,P,8,3,620,550,P,1,<rshift>,1,1,31063,372
Control_TS_6_B,0,practice,P,9,1,620,350,P,1,<rshift>,1,1,32061,403
Control_TS_6_B,0,practice,P,10,2,820,350,P,1,<rshift>,1,1,33062,299
Control_TS_6_B,1,test,P,1,3,620,550,R,0,NONE,0,1,41884,950
Control_TS_6_B,1,test,P,2,4,820,550,P,1,<rshift>,1,1,42884,508
Control_TS_6_B,1,test,P,3,3,620,550,P,1,<rshift>,1,1,43886,379
Control_TS_6_B,1,test,P,4,1,620,350,P,1,<rshift>,1,1,44883,318
Control_TS_6_B,1,test,P,5,2,820,350,P,1,<rshift>,1,1,45886,269
Control_TS_6_B,1,test,P,6,3,620,550,P,1,<rshift>,1,1,46884,320
Control_TS_6_B,1,test,P,7,1,620,350,P,1,<rshift>,1,1,47884,407
Control_TS_6_B,1,test,P,8,4,820,550,R,0,<rshift>,1,0,48884,370
Control_TS_6_B,1,test,P,9,4,820,550,P,1,<rshift>,1,1,49884,491
Control_TS_6_B,1,test,P,10,4,820,550,P,1,<rshift>,1,1,50884,500
Control_TS_6_B,1,test,P,11,2,820,350,P,1,<rshift>,1,1,51886,523
Control_TS_6_B,1,test,P,12,3,620,550,P,1,<rshift>,1,1,52884,361
Control_TS_6_B,1,test,P,13,3,620,550,R,0,NONE,0,1,53884,950
Control_TS_6_B,1,test,P,14,1,620,350,R,0,<rshift>,1,0,54884,290
Control_TS_6_B,1,test,P,15,1,620,350,P,1,<rshift>,1,1,55884,550
Control_TS_6_B,1,test,P,16,4,820,550,P,1,<rshift>,1,1,56886,512
Control_TS_6_B,1,test,P,17,3,620,550,P,1,<rshift>,1,1,57885,440
Control_TS_6_B,1,test,P,18,4,820,550,R,0,NONE,0,1,58884,950
Control_TS_6_B,1,test,P,19,3,620,550,P,1,<rshift>,1,1,59886,468
Control_TS_6_B,1,test,P,20,4,820,550,P,1,<rshift>,1,1,60884,418
Control_TS_6_B,1,test,P,21,3,620,550,R,0,<rshift>,1,0,61886,386
Control_TS_6_B,1,test,P,22,2,820,350,P,1,<rshift>,1,1,62884,474
Control_TS_6_B,1,test,P,23,4,820,550,P,1,<rshift>,1,1,63884,575
Control_TS_6_B,1,test,P,24,2,820,350,P,1,<rshift>,1,1,64884,505
Control_TS_6_B,1,test,P,25,3,620,550,P,1,<rshift>,1,1,65886,395
Control_TS_6_B,1,test,P,26,4,820,550,R,0,NONE,0,1,66884,950
Control_TS_6_B,1,test,P,27,4,820,550,P,1,<rshift>,1,1,67884,530
Control_TS_6_B,1,test,P,28,1,620,350,P,1,<rshift>,1,1,68884,362
Control_TS_6_B,1,test,P,29,4,820,550,P,1,<rshift>,1,1,69884,525
Control_TS_6_B,1,test,P,30,2,820,350,P,1,<rshift>,1,1,70885,459
Control_TS_6_B,1,test,P,31,3,620,550,P,1,<rshift>,1,1,71886,555
Control_TS_6_B,1,test,P,32,2,820,350,P,1,<rshift>,1,1,72884,316
Control_TS_6_B,1,test,P,33,1,620,350,P,1,<rshift>,1,1,73884,326
Control_TS_6_B,1,test,P,34,2,820,350,R,0,<rshift>,1,0,74885,409
Control_TS_6_B,1,test,P,35,1,620,350,P,1,<rshift>,1,1,75884,672
Control_TS_6_B,1,test,P,36,2,820,350,P,1,<rshift>,1,1,76885,433
Control_TS_6_B,1,test,P,37,4,820,550,P,1,<rshift>,1,1,77884,438
Control_TS_6_B,1,test,P,38,1,620,350,P,1,<rshift>,1,1,78884,350
Control_TS_6_B,1,test,P,39,3,620,550,P,1,<rshift>,1,1,79885,467
Control_TS_6_B,1,test,P,40,1,620,350,P,1,<rshift>,1,1,80884,467
Control_TS_6_B,1,test,P,41,3,620,550,P,1,<rshift>,1,1,81884,384
Control_TS_6_B,1,test,P,42,2,820,350,P,1,<rshift>,1,1,82887,433
Control_TS_6_B,1,test,P,43,1,620,350,P,1,<rshift>,1,1,83884,347
Control_TS_6_B,1,test,P,44,3,620,550,P,1,<rshift>,1,1,84884,369
Control_TS_6_B,1,test,P,45,1,620,350,P,1,<rshift>,1,1,85884,549
Control_TS_6_B,1,test,P,46,2,820,350,P,1,<rshift>,1,1,86884,335
Control_TS_6_B,1,test,P,47,4,820,550,P,1,<rshift>,1,1,87884,322
Control_TS_6_B,1,test,P,48,1,620,350,P,1,<rshift>,1,1,88886,323
Control_TS_6_B,1,test,P,49,1,620,350,P,1,<rshift>,1,1,89886,384
Control_TS_6_B,1,test,P,50,1,620,350,R,0,<rshift>,1,0,90886,462
Control_TS_6_B,1,test,P,51,4,820,550,R,0,NONE,0,1,91884,950
Control_TS_6_B,1,test,P,52,4,820,550,P,1,<rshift>,1,1,92884,480
Control_TS_6_B,1,test,P,53,2,820,350,P,1,<rshift>,1,1,93886,380
Control_TS_6_B,1,test,P,54,2,820,350,P,1,<rshift>,1,1,94885,414
Control_TS_6_B,1,test,P,55,1,620,350,P,1,<rshift>,1,1,95884,474
Control_TS_6_B,1,test,P,56,1,620,350,R,0,<rshift>,1,0,96884,377
Control_TS_6_B,1,test,P,57,3,620,550,P,1,<rshift>,1,1,97884,394
Control_TS_6_B,1,test,P,58,4,820,550,P,1,<rshift>,1,1,98884,429
Control_TS_6_B,1,test,P,59,3,620,550,P,1,<rshift>,1,1,99884,594
Control_TS_6_B,1,test,P,60,3,620,550,P,1,<rshift>,1,1,100884,446
Control_TS_6_B,1,test,P,61,4,820,550,P,1,<rshift>,1,1,101885,437
Control_TS_6_B,1,test,P,62,3,620,550,P,1,<rshift>,1,1,102884,376
Control_TS_6_B,1,test,P,63,2,820,350,P,1,<rshift>,1,1,103884,323
Control_TS_6_B,1,test,P,64,1,620,350,P,1,<rshift>,1,1,104885,342
Control_TS_6_B,1,test,P,65,2,820,350,P,1,<rshift>,1,1,105886,360
Control_TS_6_B,1,test,P,66,4,820,550,P,1,<rshift>,1,1,106886,659
Control_TS_6_B,1,test,P,67,1,620,350,P,1,<rshift>,1,1,107886,344
Control_TS_6_B,1,test,P,68,1,620,350,P,1,<rshift>,1,1,108884,314
Control_TS_6_B,1,test,P,69,3,620,550,P,1,<rshift>,1,1,109886,333
Control_TS_6_B,1,test,P,70,2,820,350,P,1,<rshift>,1,1,110884,281
Control_TS_6_B,1,test,P,71,1,620,350,P,1,<rshift>,1,1,111884,357
Control_TS_6_B,1,test,P,72,1,620,350,R,0,<rshift>,1,0,112886,396
Control_TS_6_B,1,test,P,73,1,620,350,P,1,<rshift>,1,1,113886,410
Control_TS_6_B,1,test,P,74,1,620,350,P,1,<rshift>,1,1,114884,364
Control_TS_6_B,1,test,P,75,3,620,550,P,1,<rshift>,1,1,115886,408
Control_TS_6_B,1,test,P,76,2,820,350,P,1,<rshift>,1,1,116884,295
Control_TS_6_B,1,test,P,77,4,820,550,P,1,<rshift>,1,1,117884,305
Control_TS_6_B,1,test,P,78,2,820,350,R,0,<rshift>,1,0,118884,349
Control_TS_6_B,1,test,P,79,1,620,350,R,0,<rshift>,1,0,119884,334
Control_TS_6_B,1,test,P,80,2,820,350,R,0,NONE,0,1,120886,950
Control_TS_6_B,1,test,P,81,3,620,550,P,1,<rshift>,1,1,121886,397
Control_TS_6_B,1,test,P,82,3,620,550,P,1,<rshift>,1,1,122884,408
Control_TS_6_B,1,test,P,83,4,820,550,P,1,<rshift>,1,1,123886,339
Control_TS_6_B,1,test,P,84,2,820,350,P,1,<rshift>,1,1,124885,329
Control_TS_6_B,1,test,P,85,2,820,350,P,1,<rshift>,1,1,125884,382
Control_TS_6_B,1,test,P,86,1,620,350,R,0,<rshift>,1,0,126884,361
Control_TS_6_B,1,test,P,87,4,820,550,P,1,<rshift>,1,1,127884,426
Control_TS_6_B,1,test,P,88,4,820,550,P,1,<rshift>,1,1,128884,392
Control_TS_6_B,1,test,P,89,1,620,350,P,1,<rshift>,1,1,129884,449
Control_TS_6_B,1,test,P,90,3,620,550,P,1,<rshift>,1,1,130884,453
Control_TS_6_B,1,test,P,91,1,620,350,P,1,<rshift>,1,1,131884,422
Control_TS_6_B,1,test,P,92,1,620,350,R,0,NONE,0,1,132884,950
Control_TS_6_B,1,test,P,93,2,820,350,P,1,<rshift>,1,1,133884,328
Control_TS_6_B,1,test,P,94,3,620,550,R,0,<rshift>,1,0,134885,347
Control_TS_6_B,1,test,P,95,4,820,550,P,1,<rshift>,1,1,135885,476
Control_TS_6_B,1,test,P,96,2,820,350,P,1,<rshift>,1,1,136884,434
Control_TS_6_B,1,test,P,97,2,820,350,P,1,<rshift>,1,1,137884,495
Control_TS_6_B,1,test,P,98,3,620,550,P,1,<rshift>,1,1,138884,428
Control_TS_6_B,1,test,P,99,3,620,550,R,0,NONE,0,1,139884,950
Control_TS_6_B,1,test,P,100,2,820,350,R,0,NONE,0,1,140886,950
Control_TS_6_B,1,test,P,101,4,820,550,P,1,<rshift>,1,1,141884,410
Control_TS_6_B,1,test,P,102,1,620,350,P,1,<rshift>,1,1,142886,344
Control_TS_6_B,1,test,P,103,1,620,350,R,0,NONE,0,1,143884,950
Control_TS_6_B,1,test,P,104,2,820,350,P,1,<rshift>,1,1,144885,460
Control_TS_6_B,1,test,P,105,1,620,350,R,0,NONE,0,1,145885,950
Control_TS_6_B,1,test,P,106,4,820,550,P,1,<rshift>,1,1,146886,421
Control_TS_6_B,1,test,P,107,4,820,550,R,0,NONE,0,1,147883,950
Control_TS_6_B,1,test,P,108,1,620,350,P,1,<rshift>,1,1,148884,536
Control_TS_6_B,1,test,P,109,4,820,550,R,0,<rshift>,1,0,149888,326
Control_TS_6_B,1,test,P,110,1,620,350,P,1,<rshift>,1,1,150884,376
Control_TS_6_B,1,test,P,111,4,820,550,P,1,<rshift>,1,1,151884,369
Control_TS_6_B,1,test,P,112,2,820,350,R,0,NONE,0,1,152886,950
Control_TS_6_B,1,test,P,113,2,820,350,P,1,<rshift>,1,1,153884,399
Control_TS_6_B,1,test,P,114,2,820,350,P,1,<rshift>,1,1,154886,550
Control_TS_6_B,1,test,P,115,3,620,550,P,1,<rshift>,1,1,155884,442
Control_TS_6_B,1,test,P,116,1,620,350,P,1,<rshift>,1,1,156886,360
Control_TS_6_B,1,test,P,117,4,820,550,P,1,<rshift>,1,1,157884,521
Control_TS_6_B,1,test,P,118,1,620,350,P,1,<rshift>,1,1,158884,340
Control_TS_6_B,1,test,P,119,3,620,550,R,0,<rshift>,1,0,159885,372
Control_TS_6_B,1,test,P,120,2,820,350,P,1,<rshift>,1,1,160884,506
Control_TS_6_B,1,test,P,121,3,620,550,P,1,<rshift>,1,1,161886,546
Control_TS_6_B,1,test,P,122,3,620,550,P,1,NONE,0,0,162884,950
Control_TS_6_B,1,test,P,123,3,620,550,P,1,<rshift>,1,1,163884,559
Control_TS_6_B,1,test,P,124,2,820,350,P,1,<rshift>,1,1,164884,519
Control_TS_6_B,1,test,P,125,3,620,550,P,1,<rshift>,1,1,165886,420
Control_TS_6_B,1,test,P,126,2,820,350,P,1,<rshift>,1,1,166886,404
Control_TS_6_B,1,test,P,127,3,620,550,P,1,<rshift>,1,1,167884,553
Control_TS_6_B,1,test,P,128,3,620,550,P,1,<rshift>,1,1,168885,402
Control_TS_6_B,1,test,P,129,2,820,350,P,1,<rshift>,1,1,169886,421
Control_TS_6_B,1,test,P,130,3,620,550,P,1,<rshift>,1,1,170884,390
Control_TS_6_B,1,test,P,131,3,620,550,P,1,<rshift>,1,1,171886,584
Control_TS_6_B,1,test,P,132,1,620,350,P,1,<rshift>,1,1,172884,506
Control_TS_6_B,1,test,P,133,4,820,550,P,1,<rshift>,1,1,173886,354
Control_TS_6_B,1,test,P,134,4,820,550,P,1,<rshift>,1,1,174886,413
Control_TS_6_B,1,test,P,135,3,620,550,P,1,<rshift>,1,1,175884,398
Control_TS_6_B,1,test,P,136,4,820,550,P,1,<rshift>,1,1,176884,486
Control_TS_6_B,1,test,P,137,1,620,350,R,0,<rshift>,1,0,177886,400
Control_TS_6_B,1,test,P,138,1,620,350,P,1,<rshift>,1,1,178884,553
Control_TS_6_B,1,test,P,139,4,820,550,P,1,<rshift>,1,1,179886,412
Control_TS_6_B,1,test,P,140,2,820,350,R,0,NONE,0,1,180884,951
Control_TS_6_B,1,test,P,141,2,820,350,P,1,<rshift>,1,1,181885,540
Control_TS_6_B,1,test,P,142,4,820,550,P,1,<rshift>,1,1,182884,349
Control_TS_6_B,1,test,P,143,2,820,350,P,1,<rshift>,1,1,183886,381
Control_TS_6_B,1,test,P,144,4,820,550,P,1,<rshift>,1,1,184884,409
Control_TS_6_B,1,test,P,145,1,620,350,P,1,<rshift>,1,1,185886,352
Control_TS_6_B,1,test,P,146,3,620,550,P,1,<rshift>,1,1,186886,384
Control_TS_6_B,1,test,P,147,3,620,550,R,0,NONE,0,1,187884,950
Control_TS_6_B,1,test,P,148,4,820,550,R,0,<rshift>,1,0,188885,374
Control_TS_6_B,1,test,P,149,2,820,350,P,1,<rshift>,1,1,189886,396
Control_TS_6_B,1,test,P,150,2,820,350,P,1,<rshift>,1,1,190884,514
Control_TS_6_B,1,test,P,151,2,820,350,P,1,<rshift>,1,1,191884,382
Control_TS_6_B,1,test,P,152,3,620,550,P,1,<rshift>,1,1,192884,462
Control_TS_6_B,1,test,P,153,1,620,350,P,1,<rshift>,1,1,193884,466
Control_TS_6_B,1,test,P,154,2,820,350,P,1,<rshift>,1,1,194884,358
Control_TS_6_B,1,test,P,155,1,620,350,P,1,<rshift>,1,1,195885,374
Control_TS_6_B,1,test,P,156,4,820,550,P,1,<rshift>,1,1,196886,427
Control_TS_6_B,1,test,P,157,1,620,350,P,1,<rshift>,1,1,197884,507
Control_TS_6_B,1,test,P,158,1,620,350,P,1,<rshift>,1,1,198884,495
Control_TS_6_B,1,test,P,159,3,620,550,P,1,<rshift>,1,1,199884,466
Control_TS_6_B,1,test,P,160,1,620,350,P,1,<rshift>,1,1,200884,430
Control_TS_6_B,1,test,P,161,2,820,350,P,1,<rshift>,1,1,201886,397
Control_TS_6_B,1,test,P,162,1,620,350,P,1,<rshift>,1,1,202884,373
Control_TS_6_B,1,test,P,163,4,820,550,P,1,<rshift>,1,1,203884,448
Control_TS_6_B,1,test,P,164,2,820,350,P,1,<rshift>,1,1,204884,369
Control_TS_6_B,1,test,P,165,3,620,550,P,1,<rshift>,1,1,205884,388
Control_TS_6_B,1,test,P,166,4,820,550,P,1,<rshift>,1,1,206884,548
Control_TS_6_B,1,test,P,167,3,620,550,P,1,<rshift>,1,1,207886,412
Control_TS_6_B,1,test,P,168,2,820,350,R,0,<rshift>,1,0,208884,350
Control_TS_6_B,1,test,P,169,3,620,550,P,1,<rshift>,1,1,209884,495
Control_TS_6_B,1,test,P,170,4,820,550,P,1,<rshift>,1,1,210884,589
Control_TS_6_B,1,test,P,171,1,620,350,P,1,<rshift>,1,1,211884,534
Control_TS_6_B,1,test,P,172,2,820,350,P,1,<rshift>,1,1,212884,405
Control_TS_6_B,1,test,P,173,2,820,350,P,1,<rshift>,1,1,213886,624
Control_TS_6_B,1,test,P,174,4,820,550,P,1,<rshift>,1,1,214886,520
Control_TS_6_B,1,test,P,175,1,620,350,R,0,<rshift>,1,0,215884,487
Control_TS_6_B,1,test,P,176,3,620,550,P,1,<rshift>,1,1,216884,516
Control_TS_6_B,1,test,P,177,3,620,550,P,1,NONE,0,0,217886,950
Control_TS_6_B,1,test,P,178,3,620,550,R,0,NONE,0,1,218885,950
Control_TS_6_B,1,test,P,179,3,620,550,P,1,<rshift>,1,1,219886,486
Control_TS_6_B,1,test,P,180,2,820,350,P,1,<rshift>,1,1,220886,545
Control_TS_6_B,1,test,P,181,1,620,350,R,0,<rshift>,1,0,221884,529
Control_TS_6_B,1,test,P,182,4,820,550,P,1,<rshift>,1,1,222884,530
Control_TS_6_B,1,test,P,183,2,820,350,P,1,<rshift>,1,1,223884,513
Control_TS_6_B,1,test,P,184,2,820,350,P,1,<rshift>,1,1,224886,450
Control_TS_6_B,1,test,P,185,4,820,550,R,0,NONE,0,1,225886,950
Control_TS_6_B,1,test,P,186,2,820,350,P,1,<rshift>,1,1,226886,589
Control_TS_6_B,1,test,P,187,1,620,350,P,1,<rshift>,1,1,227884,484
Control_TS_6_B,1,test,P,188,2,820,350,P,1,<rshift>,1,1,228886,415
Control_TS_6_B,1,test,P,189,1,620,350,P,1,<rshift>,1,1,229884,548
Control_TS_6_B,1,test,P,190,4,820,550,P,1,<rshift>,1,1,230884,479
Control_TS_6_B,1,test,P,191,1,620,350,P,1,<rshift>,1,1,231884,491
Control_TS_6_B,1,test,P,192,1,620,350,P,1,<rshift>,1,1,232884,490
Control_TS_6_B,1,test,P,193,4,820,550,P,1,<rshift>,1,1,233886,456
Control_TS_6_B,1,test,P,194,1,620,350,P,1,<rshift>,1,1,234886,658
Control_TS_6_B,1,test,P,195,3,620,550,P,1,<rshift>,1,1,235884,477
Control_TS_6_B,1,test,P,196,4,820,550,P,1,<rshift>,1,1,236886,463
Control_TS_6_B,1,test,P,197,3,620,550,P,1,<rshift>,1,1,237886,392
Control_TS_6_B,1,test,P,198,1,620,350,P,1,<rshift>,1,1,238884,288
Control_TS_6_B,1,test,P,199,1,620,350,P,1,<rshift>,1,1,239884,411
Control_TS_6_B,1,test,P,200,4,820,550,R,0,NONE,0,1,240884,950
Control_TS_6_B,1,test,P,201,3,620,550,P,1,<rshift>,1,1,241884,399
Control_TS_6_B,1,test,P,202,2,820,350,P,1,<rshift>,1,1,242884,368
Control_TS_6_B,1,test,P,203,3,620,550,P,1,<rshift>,1,1,243884,474
Control_TS_6_B,1,test,P,204,1,620,350,R,0,NONE,0,1,244884,950
Control_TS_6_B,1,test,P,205,2,820,350,P,1,<rshift>,1,1,245884,312
Control_TS_6_B,1,test,P,206,3,620,550,P,1,<rshift>,1,1,246886,321
Control_TS_6_B,1,test,P,207,3,620,550,P,1,<rshift>,1,1,247884,509
Control_TS_6_B,1,test,P,208,2,820,350,P,1,<rshift>,1,1,248884,330
Control_TS_6_B,1,test,P,209,3,620,550,P,1,<rshift>,1,1,249886,384
Control_TS_6_B,1,test,P,210,1,620,350,P,1,<rshift>,1,1,250884,410
Control_TS_6_B,1,test,P,211,3,620,550,R,0,<rshift>,1,0,251884,451
Control_TS_6_B,1,test,P,212,3,620,550,P,1,NONE,0,0,252886,950
Control_TS_6_B,1,test,P,213,1,620,350,R,0,<rshift>,1,0,253884,396
Control_TS_6_B,1,test,P,214,2,820,350,R,0,<rshift>,1,0,254884,417
Control_TS_6_B,1,test,P,215,3,620,550,R,0,NONE,0,1,255884,951
Control_TS_6_B,1,test,P,216,1,620,350,P,1,<rshift>,1,1,256885,588
Control_TS_6_B,1,test,P,217,1,620,350,R,0,NONE,0,1,257885,950
Control_TS_6_B,1,test,P,218,3,620,550,P,1,<rshift>,1,1,258884,402
Control_TS_6_B,1,test,P,219,2,820,350,P,1,<rshift>,1,1,259886,378
Control_TS_6_B,1,test,P,220,3,620,550,P,1,<rshift>,1,1,260884,411
Control_TS_6_B,1,test,P,221,1,620,350,P,1,<rshift>,1,1,261885,593
Control_TS_6_B,1,test,P,222,4,820,550,R,0,NONE,0,1,262886,950
Control_TS_6_B,1,test,P,223,3,620,550,P,1,<rshift>,1,1,263884,449
Control_TS_6_B,1,test,P,224,1,620,350,R,0,<rshift>,1,0,264884,347
Control_TS_6_B,1,test,P,225,1,620,350,P,1,<rshift>,1,1,265884,638
Control_TS_6_B,1,test,P,226,3,620,550,P,1,<rshift>,1,1,266884,487
Control_TS_6_B,1,test,P,227,2,820,350,P,1,<rshift>,1,1,267884,380
Control_TS_6_B,1,test,P,228,2,820,350,P,1,<rshift>,1,1,268884,420
Control_TS_6_B,1,test,P,229,2,820,350,P,1,<rshift>,1,1,269884,436
Control_TS_6_B,1,test,P,230,3,620,550,P,1,<rshift>,1,1,270884,357
Control_TS_6_B,1,test,P,231,4,820,550,P,1,<rshift>,1,1,271884,389
Control_TS_6_B,1,test,P,232,2,820,350,P,1,<rshift>,1,1,272884,368
Control_TS_6_B,1,test,P,233,1,620,350,P,1,<rshift>,1,1,273885,339
Control_TS_6_B,1,test,P,234,3,620,550,P,1,<rshift>,1,1,274885,396
Control_TS_6_B,1,test,P,235,1,620,350,P,1,<rshift>,1,1,275886,417
Control_TS_6_B,1,test,P,236,1,620,350,P,1,NONE,0,0,276884,950
Control_TS_6_B,1,test,P,237,3,620,550,R,0,<rshift>,1,0,277884,382
Control_TS_6_B,1,test,P,238,3,620,550,P,1,<rshift>,1,1,278884,583
Control_TS_6_B,1,test,P,239,2,820,350,R,0,<rshift>,1,0,279884,407
Control_TS_6_B,1,test,P,240,1,620,350,P,1,<rshift>,1,1,280884,426
Control_TS_6_B,1,test,P,241,2,820,350,R,0,NONE,0,1,281884,950
Control_TS_6_B,1,test,P,242,2,820,350,P,1,<rshift>,1,1,282886,590
Control_TS_6_B,1,test,P,243,3,620,550,R,0,<rshift>,1,0,283884,374
Control_TS_6_B,1,test,P,244,2,820,350,P,1,<rshift>,1,1,284884,611
Control_TS_6_B,1,test,P,245,1,620,350,P,1,<rshift>,1,1,285884,508
Control_TS_6_B,1,test,P,246,1,620,350,P,1,<rshift>,1,1,286884,572
Control_TS_6_B,1,test,P,247,3,620,550,P,1,<rshift>,1,1,287884,572
Control_TS_6_B,1,test,P,248,2,820,350,P,1,<rshift>,1,1,288886,332
Control_TS_6_B,1,test,P,249,1,620,350,R,0,NONE,0,1,289884,950
Control_TS_6_B,1,test,P,250,1,620,350,R,0,NONE,0,1,290884,950
Control_TS_6_B,1,test,P,251,3,620,550,P,1,<rshift>,1,1,291884,402
Control_TS_6_B,1,test,P,252,3,620,550,P,1,<rshift>,1,1,292884,716
Control_TS_6_B,1,test,P,253,4,820,550,P,1,<rshift>,1,1,293884,548
Control_TS_6_B,1,test,P,254,2,820,350,P,1,<rshift>,1,1,294884,399
Control_TS_6_B,1,test,P,255,2,820,350,R,0,NONE,0,1,295885,950
Control_TS_6_B,1,test,P,256,3,620,550,P,1,<rshift>,1,1,296884,477
Control_TS_6_B,1,test,P,257,2,820,350,R,0,<rshift>,1,0,297886,351
Control_TS_6_B,1,test,P,258,4,820,550,P,1,<rshift>,1,1,298884,397
Control_TS_6_B,1,test,P,259,4,820,550,P,1,<rshift>,1,1,299884,367
Control_TS_6_B,1,test,P,260,2,820,350,P,1,<rshift>,1,1,300884,438
Control_TS_6_B,1,test,P,261,3,620,550,R,0,<rshift>,1,0,301884,324
Control_TS_6_B,1,test,P,262,2,820,350,P,1,<rshift>,1,1,302885,422
Control_TS_6_B,1,test,P,263,4,820,550,P,1,<rshift>,1,1,303884,384
Control_TS_6_B,1,test,P,264,3,620,550,P,1,<rshift>,1,1,304884,340
Control_TS_6_B,1,test,P,265,2,820,350,P,1,<rshift>,1,1,305884,449
Control_TS_6_B,1,test,P,266,4,820,550,P,1,<rshift>,1,1,306884,435
Control_TS_6_B,1,test,P,267,2,820,350,P,1,<rshift>,1,1,307886,563
Control_TS_6_B,1,test,P,268,1,620,350,P,1,<rshift>,1,1,308884,404
Control_TS_6_B,1,test,P,269,4,820,550,P,1,<rshift>,1,1,309886,533
Control_TS_6_B,1,test,P,270,4,820,550,P,1,<rshift>,1,1,310884,449
Control_TS_6_B,1,test,P,271,4,820,550,P,1,<rshift>,1,1,311884,384
Control_TS_6_B,1,test,P,272,2,820,350,P,1,<rshift>,1,1,312884,626
Control_TS_6_B,1,test,P,273,2,820,350,P,1,<rshift>,1,1,313884,405
Control_TS_6_B,1,test,P,274,1,620,350,P,1,<rshift>,1,1,314885,350
Control_TS_6_B,1,test,P,275,3,620,550,P,1,<rshift>,1,1,315886,433
Control_TS_6_B,1,test,P,276,1,620,350,P,1,<rshift>,1,1,316884,400
Control_TS_6_B,1,test,P,277,4,820,550,R,0,NONE,0,1,317884,950
Control_TS_6_B,1,test,P,278,3,620,550,R,0,<rshift>,1,0,318884,309
Control_TS_6_B,1,test,P,279,3,620,550,R,0,NONE,0,1,319884,950
Control_TS_6_B,1,test,P,280,3,620,550,P,1,<rshift>,1,1,320884,547
Control_TS_6_B,1,test,P,281,2,820,350,P,1,<rshift>,1,1,321884,370
Control_TS_6_B,1,test,P,282,4,820,550,P,1,<rshift>,1,1,322884,365
Control_TS_6_B,1,test,P,283,1,620,350,P,1,<rshift>,1,1,323885,312
Control_TS_6_B,1,test,P,284,3,620,550,P,1,<rshift>,1,1,324884,378
Control_TS_6_B,1,test,P,285,4,820,550,P,1,<rshift>,1,1,325884,290
Control_TS_6_B,1,test,P,286,4,820,550,P,1,<rshift>,1,1,326884,429
Control_TS_6_B,1,test,P,287,4,820,550,P,1,<rshift>,1,1,327884,400
Control_TS_6_B,1,test,P,288,3,620,550,P,1,<rshift>,1,1,328885,369
Control_TS_6_B,1,test,P,289,4,820,550,R,0,NONE,0,1,329884,950
Control_TS_6_B,1,test,P,290,4,820,550,P,1,<rshift>,1,1,330886,407
Control_TS_6_B,1,test,P,291,1,620,350,P,1,<rshift>,1,1,331886,354
Control_TS_6_B,1,test,P,292,2,820,350,R,0,<rshift>,1,0,332886,266
Control_TS_6_B,1,test,P,293,2,820,350,P,1,<rshift>,1,1,333886,631
Control_TS_6_B,1,test,P,294,1,620,350,R,0,NONE,0,1,334884,950
Control_TS_6_B,1,test,P,295,2,820,350,P,1,<rshift>,1,1,335885,458
Control_TS_6_B,1,test,P,296,2,820,350,P,1,<rshift>,1,1,336885,379
Control_TS_6_B,1,test,P,297,4,820,550,P,1,<rshift>,1,1,337885,370
Control_TS_6_B,1,test,P,298,1,620,350,P,1,<rshift>,1,1,338886,328
Control_TS_6_B,1,test,P,299,2,820,350,R,0,<rshift>,1,0,339884,386
Control_TS_6_B,1,test,P,300,3,620,550,P,1,<rshift>,1,1,340884,451
Control_TS_6_B,2,practice,R,1,2,820,350,R,1,<rshift>,1,1,356186,734
Control_TS_6_B,2,practice,R,2,1,620,350,R,1,<rshift>,1,1,357185,413
Control_TS_6_B,2,practice,R,3,3,620,550,R,1,<rshift>,1,1,358187,309
Control_TS_6_B,2,practice,R,4,4,820,550,R,1,<rshift>,1,1,359187,329
Control_TS_6_B,2,practice,R,5,2,820,350,R,1,<rshift>,1,1,360187,381
Control_TS_6_B,2,practice,R,6,4,820,550,R,1,<rshift>,1,1,361187,350
Control_TS_6_B,2,practice,R,7,2,820,350,R,1,<rshift>,1,1,362186,387
Control_TS_6_B,2,practice,R,8,2,820,350,R,1,<rshift>,1,1,363185,337
Control_TS_6_B,2,practice,R,9,2,820,350,P,0,<rshift>,1,0,364187,322
Control_TS_6_B,2,practice,R,10,2,820,350,P,0,NONE,0,1,365528,950
Control_TS_6_B,3,test,R,1,3,620,550,P,0,NONE,0,1,368883,950
Control_TS_6_B,3,test,R,2,1,620,350,R,1,<rshift>,1,1,369882,507
Control_TS_6_B,3,test,R,3,1,620,350,R,1,<rshift>,1,1,370882,468
Control_TS_6_B,3,test,R,4,4,820,550,R,1,<rshift>,1,1,371882,367
Control_TS_6_B,3,test,R,5,3,620,550,R,1,<rshift>,1,1,372883,382
Control_TS_6_B,3,test,R,6,4,820,550,R,1,<rshift>,1,1,373882,367
Control_TS_6_B,3,test,R,7,3,620,550,R,1,<rshift>,1,1,374882,370
Control_TS_6_B,3,test,R,8,4,820,550,R,1,<rshift>,1,1,375882,375
Control_TS_6_B,3,test,R,9,4,820,550,R,1,<rshift>,1,1,376883,432
Control_TS_6_B,3,test,R,10,2,820,350,R,1,<rshift>,1,1,377882,480
Control_TS_6_B,3,test,R,11,4,820,550,R,1,<rshift>,1,1,378882,422
Control_TS_6_B,3,test,R,12,1,620,350,R,1,<rshift>,1,1,379882,298
Control_TS_6_B,3,test,R,13,2,820,350,P,0,NONE,0,1,380882,950
Control_TS_6_B,3,test,R,14,1,620,350,R,1,<rshift>,1,1,381882,313
Control_TS_6_B,3,test,R,15,1,620,350,R,1,NONE,0,0,382882,950
Control_TS_6_B,3,test,R,16,4,820,550,R,1,<rshift>,1,1,383882,431
Control_TS_6_B,3,test,R,17,1,620,350,P,0,<rshift>,1,0,384882,441
Control_TS_6_B,3,test,R,18,2,820,350,R,1,<rshift>,1,1,385882,405
Control_TS_6_B,3,test,R,19,4,820,550,P,0,<rshift>,1,0,386882,309
Control_TS_6_B,3,test,R,20,4,820,550,R,1,<rshift>,1,1,387883,540
Control_TS_6_B,3,test,R,21,3,620,550,R,1,<rshift>,1,1,388883,405
Control_TS_6_B,3,test,R,22,2,820,350,R,1,<rshift>,1,1,389883,353
Control_TS_6_B,3,test,R,23,1,620,350,P,0,<rshift>,1,0,390882,461
Control_TS_6_B,3,test,R,24,4,820,550,R,1,<rshift>,1,1,391883,281
Control_TS_6_B,3,test,R,25,2,820,350,R,1,<rshift>,1,1,392882,311
Control_TS_6_B,3,test,R,26,2,820,350,P,0,<rshift>,1,0,393882,375
Control_TS_6_B,3,test,R,27,2,820,350,P,0,NONE,0,1,394883,950
Control_TS_6_B,3,test,R,28,1,620,350,R,1,<rshift>,1,1,395882,352
Control_TS_6_B,3,test,R,29,2,820,350,P,0,NONE,0,1,396884,950
Control_TS_6_B,3,test,R,30,4,820,550,R,1,<rshift>,1,1,397883,332
Control_TS_6_B,3,test,R,31,2,820,350,P,0,NONE,0,1,398883,951
Control_TS_6_B,3,test,R,32,4,820,550,R,1,<rshift>,1,1,399882,411
Control_TS_6_B,3,test,R,33,4,820,550,R,1,NONE,0,0,400884,950
Control_TS_6_B,3,test,R,34,2,820,350,R,1,<rshift>,1,1,401883,381
Control_TS_6_B,3,test,R,35,1,620,350,R,1,<rshift>,1,1,402884,388
Control_TS_6_B,3,test,R,36,2,820,350,P,0,NONE,0,1,403884,950
Control_TS_6_B,3,test,R,37,4,820,550,R,1,<rshift>,1,1,404884,417
Control_TS_6_B,3,test,R,38,2,820,350,R,1,NONE,0,0,405882,950
Control_TS_6_B,3,test,R,39,2,820,350,R,1,<rshift>,1,1,406882,452
Control_TS_6_B,3,test,R,40,1,620,350,R,1,<rshift>,1,1,407884,375
Control_TS_6_B,3,test,R,41,3,620,550,R,1,<rshift>,1,1,408884,445
Control_TS_6_B,3,test,R,42,2,820,350,R,1,<rshift>,1,1,409884,352
Control_TS_6_B,3,test,R,43,3,620,550,R,1,<rshift>,1,1,410884,346
Control_TS_6_B,3,test,R,44,1,620,350,R,1,<rshift>,1,1,411882,439
Control_TS_6_B,3,test,R,45,4,820,550,R,1,<rshift>,1,1,412884,505
Control_TS_6_B,3,test,R,46,2,820,350,P,0,NONE,0,1,413882,950
Control_TS_6_B,3,test,R,47,2,820,350,R,1,<rshift>,1,1,414882,419
Control_TS_6_B,3,test,R,48,1,620,350,P,0,<rshift>,1,0,415882,326
Control_TS_6_B,3,test,R,49,3,620,550,R,1,<rshift>,1,1,416882,461
Control_TS_6_B,3,test,R,50,2,820,350,R,1,<rshift>,1,1,417884,402
Control_TS_6_B,3,test,R,51,1,620,350,R,1,<rshift>,1,1,418882,529
Control_TS_6_B,3,test,R,52,3,620,550,R,1,<rshift>,1,1,419882,513
Control_TS_6_B,3,test,R,53,4,820,550,R,1,<rshift>,1,1,420882,440
Control_TS_6_B,3,test,R,54,3,620,550,R,1,<rshift>,1,1,421882,450
Control_TS_6_B,3,test,R,55,2,820,350,R,1,<rshift>,1,1,422882,469
Control_TS_6_B,3,test,R,56,4,820,550,P,0,NONE,0,1,423882,950
Control_TS_6_B,3,test,R,57,1,620,350,R,1,<rshift>,1,1,424882,321
Control_TS_6_B,3,test,R,58,3,620,550,P,0,<rshift>,1,0,425882,471
Control_TS_6_B,3,test,R,59,1,620,350,R,1,<rshift>,1,1,426882,574
Control_TS_6_B,3,test,R,60,3,620,550,P,0,NONE,0,1,427882,950
Control_TS_6_B,3,test,R,61,4,820,550,R,1,<rshift>,1,1,428882,263
Control_TS_6_B,3,test,R,62,2,820,350,P,0,NONE,0,1,429883,950
Control_TS_6_B,3,test,R,63,2,820,350,R,1,<rshift>,1,1,430882,505
Control_TS_6_B,3,test,R,64,4,820,550,R,1,<rshift>,1,1,431882,504
Control_TS_6_B,3,test,R,65,2,820,350,R,1,<rshift>,1,1,432882,397
Control_TS_6_B,3,test,R,66,3,620,550,R,1,<rshift>,1,1,433882,391
Control_TS_6_B,3,test,R,67,4,820,550,R,1,<rshift>,1,1,434884,630
Control_TS_6_B,3,test,R,68,3,620,550,P,0,<rshift>,1,0,435882,381
Control_TS_6_B,3,test,R,69,4,820,550,R,1,<rshift>,1,1,436882,435
Control_TS_6_B,3,test,R,70,1,620,350,R,1,<rshift>,1,1,437882,324
Control_TS_6_B,3,test,R,71,3,620,550,R,1,<rshift>,1,1,438882,350
Control_TS_6_B,3,test,R,72,4,820,550,P,0,NONE,0,1,439883,950
Control_TS_6_B,3,test,R,73,2,820,350,R,1,<rshift>,1,1,440882,334
Control_TS_6_B,3,test,R,74,2,820,350,R,1,<rshift>,1,1,441882,673
Control_TS_6_B,3,test,R,75,4,820,550,R,1,<rshift>,1,1,442882,529
Control_TS_6_B,3,test,R,76,1,620,350,R,1,<rshift>,1,1,443882,328
Control_TS_6_B,3,test,R,77,2,820,350,R,1,<rshift>,1,1,444882,379
Control_TS_6_B,3,test,R,78,4,820,550,R,1,<rshift>,1,1,445882,474
Control_TS_6_B,3,test,R,79,2,820,350,P,0,<rshift>,1,0,446882,315
Control_TS_6_B,3,test,R,80,3,620,550,R,1,<rshift>,1,1,447882,311
Control_TS_6_B,3,test,R,81,3,620,550,R,1,<rshift>,1,1,448882,316
Control_TS_6_B,3,test,R,82,4,820,550,R,1,<rshift>,1,1,449882,498
Control_TS_6_B,3,test,R,83,4,820,550,R,1,<rshift>,1,1,450884,686
Control_TS_6_B,3,test,R,84,3,620,550,R,1,<rshift>,1,1,451884,434
Control_TS_6_B,3,test,R,85,3,620,550,P,0,<rshift>,1,0,452883,431
Control_TS_6_B,3,test,R,86,2,820,350,R,1,<rshift>,1,1,453882,308
Control_TS_6_B,3,test,R,87,4,820,550,R,1,<rshift>,1,1,454883,337
Control_TS_6_B,3,test,R,88,3,620,550,R,1,<rshift>,1,1,455882,409
Control_TS_6_B,3,test,R,89,2,820,350,R,1,<rshift>,1,1,456882,335
Control_TS_6_B,3,test,R,90,2,820,350,R,1,<rshift>,1,1,457885,298
Control_TS_6_B,3,test,R,91,4,820,550,R,1,<rshift>,1,1,458882,426
Control_TS_6_B,3,test,R,92,3,620,550,R,1,<rshift>,1,1,459882,411
Control_TS_6_B,3,test,R,93,3,620,550,P,0,NONE,0,1,460884,950
Control_TS_6_B,3,test,R,94,3,620,550,R,1,<rshift>,1,1,461882,460
Control_TS_6_B,3,test,R,95,2,820,350,R,1,<rshift>,1,1,462882,468
Control_TS_6_B,3,test,R,96,4,820,550,R,1,<rshift>,1,1,463883,451
Control_TS_6_B,3,test,R,97,4,820,550,P,0,NONE,0,1,464882,950
Control_TS_6_B,3,test,R,98,1,620,350,R,1,<rshift>,1,1,465882,407
Control_TS_6_B,3,test,R,99,3,620,550,R,1,<rshift>,1,1,466882,705
Control_TS_6_B,3,test,R,100,1,620,350,R,1,<rshift>,1,1,467882,463
Control_TS_6_B,3,test,R,101,1,620,350,R,1,NONE,0,0,468884,950
Control_TS_6_B,3,test,R,102,2,820,350,R,1,<rshift>,1,1,469882,321
Control_TS_6_B,3,test,R,103,1,620,350,R,1,<rshift>,1,1,470884,391
Control_TS_6_B,3,test,R,104,1,620,350,R,1,<rshift>,1,1,471882,601
Control_TS_6_B,3,test,R,105,2,820,350,R,1,<rshift>,1,1,472882,474
Control_TS_6_B,3,test,R,106,4,820,550,R,1,<rshift>,1,1,473883,330
Control_TS_6_B,3,test,R,107,2,820,350,R,1,<rshift>,1,1,474883,358
Control_TS_6_B,3,test,R,108,4,820,550,R,1,<rshift>,1,1,475884,435
Control_TS_6_B,3,test,R,109,4,820,550,R,1,<rshift>,1,1,476882,482
Control_TS_6_B,3,test,R,110,2,820,350,P,0,NONE,0,1,477882,950
Control_TS_6_B,3,test,R,111,1,620,350,R,1,<rshift>,1,1,478882,475
Control_TS_6_B,3,test,R,112,2,820,350,R,1,<rshift>,1,1,479882,579
Control_TS_6_B,3,test,R,113,1,620,350,R,1,<rshift>,1,1,480882,792
Control_TS_6_B,3,test,R,114,1,620,350,R,1,<rshift>,1,1,481882,516
Control_TS_6_B,3,test,R,115,3,620,550,P,0,<rshift>,1,0,482884,385
Control_TS_6_B,3,test,R,116,4,820,550,R,1,<rshift>,1,1,483884,365
Control_TS_6_B,3,test,R,117,4,820,550,P,0,NONE,0,1,484884,950
Control_TS_6_B,3,test,R,118,4,820,550,R,1,<rshift>,1,1,485883,317
Control_TS_6_B,3,test,R,119,2,820,350,R,1,<rshift>,1,1,486883,390
Control_TS_6_B,3,test,R,120,4,820,550,R,1,<rshift>,1,1,487882,456
Control_TS_6_B,3,test,R,121,3,620,550,R,1,<rshift>,1,1,488884,539
Control_TS_6_B,3,test,R,122,1,620,350,R,1,<rshift>,1,1,489882,327
Control_TS_6_B,3,test,R,123,1,620,350,R,1,<rshift>,1,1,490882,351
Control_TS_6_B,3,test,R,124,3,620,550,P,0,<rshift>,1,0,491883,352
Control_TS_6_B,3,test,R,125,2,820,350,R,1,<rshift>,1,1,492884,459
Control_TS_6_B,3,test,R,126,1,620,350,P,0,<rshift>,1,0,493884,310
Control_TS_6_B,3,test,R,127,4,820,550,R,1,<rshift>,1,1,494884,264
Control_TS_6_B,3,test,R,128,2,820,350,R,1,<rshift>,1,1,495882,383
Control_TS_6_B,3,test,R,129,3,620,550,P,0,NONE,0,1,496884,950
Control_TS_6_B,3,test,R,130,4,820,550,P,0,<rshift>,1,0,497882,327
Control_TS_6_B,3,test,R,131,4,820,550,R,1,<rshift>,1,1,498884,232
Control_TS_6_B,3,test,R,132,3,620,550,P,0,<rshift>,1,0,499884,337
Control_TS_6_B,3,test,R,133,2,820,350,R,1,<rshift>,1,1,500882,324
Control_TS_6_B,3,test,R,134,3,620,550,R,1,<rshift>,1,1,501882,398
Control_TS_6_B,3,test,R,135,4,820,550,P,0,<rshift>,1,0,502882,351
Control_TS_6_B,3,test,R,136,2,820,350,R,1,<rshift>,1,1,503882,496
Control_TS_6_B,3,test,R,137,1,620,350,R,1,<rshift>,1,1,504882,557
Control_TS_6_B,3,test,R,138,3,620,550,R,1,<rshift>,1,1,505882,469
Control_TS_6_B,3,test,R,139,3,620,550,P,0,NONE,0,1,506883,950
Control_TS_6_B,3,test,R,140,4,820,550,R,1,NONE,0,0,507884,950
Control_TS_6_B,3,test,R,141,1,620,350,R,1,<rshift>,1,1,508884,282
Control_TS_6_B,3,test,R,142,4,820,550,R,1,<rshift>,1,1,509884,399
Control_TS_6_B,3,test,R,143,4,820,550,R,1,NONE,0,0,510882,950
Control_TS_6_B,3,test,R,144,3,620,550,R,1,<rshift>,1,1,511882,431
Control_TS_6_B,3,test,R,145,1,620,350,R,1,<rshift>,1,1,512882,425
Control_TS_6_B,3,test,R,146,3,620,550,R,1,<rshift>,1,1,513882,756
Control_TS_6_B,3,test,R,147,2,820,350,R,1,<rshift>,1,1,514882,368
Control_TS_6_B,3,test,R,148,3,620,550,R,1,<rshift>,1,1,515884,257
Control_TS_6_B,3,test,R,149,4,820,550,R,1,<rshift>,1,1,516883,351
Control_TS_6_B,3,test,R,150,1,620,350,R,1,<rshift>,1,1,517882,282
Control_TS_6_B,3,test,R,151,2,820,350,P,0,<rshift>,1,0,518884,309
Control_TS_6_B,3,test,R,152,4,820,550,R,1,<rshift>,1,1,519882,394
Control_TS_6_B,3,test,R,153,1,620,350,P,0,<rshift>,1,0,520882,313
Control_TS_6_B,3,test,R,154,1,620,350,R,1,<rshift>,1,1,521883,615
Control_TS_6_B,3,test,R,155,3,620,550,R,1,<rshift>,1,1,522882,366
Control_TS_6_B,3,test,R,156,3,620,550,R,1,<rshift>,1,1,523882,693
Control_TS_6_B,3,test,R,157,3,620,550,R,1,<rshift>,1,1,524882,481
Control_TS_6_B,3,test,R,158,4,820,550,R,1,<rshift>,1,1,525882,362
Control_TS_6_B,3,test,R,159,4,820,550,R,1,<rshift>,1,1,526883,389
Control_TS_6_B,3,test,R,160,2,820,350,R,1,<rshift>,1,1,527882,312
Control_TS_6_B,3,test,R,161,1,620,350,R,1,<rshift>,1,1,528882,208
Control_TS_6_B,3,test,R,162,2,820,350,R,1,<rshift>,1,1,529882,387
Control_TS_6_B,3,test,R,163,1,620,350,P,0,NONE,0,1,530884,950
Control_TS_6_B,3,test,R,164,4,820,550,R,1,<rshift>,1,1,531884,287
Control_TS_6_B,3,test,R,165,1,620,350,P,0,<rshift>,1,0,532882,315
Control_TS_6_B,3,test,R,166,1,620,350,R,1,NONE,0,0,533882,950
Control_TS_6_B,3,test,R,167,3,620,550,R,1,<rshift>,1,1,534882,267
Control_TS_6_B,3,test,R,168,4,820,550,R,1,<rshift>,1,1,535882,346
Control_TS_6_B,3,test,R,169,4,820,550,R,1,<rshift>,1,1,536882,374
Control_TS_6_B,3,test,R,170,1,620,350,R,1,<rshift>,1,1,537882,344
Control_TS_6_B,3,test,R,171,4,820,550,R,1,<rshift>,1,1,538882,326
Control_TS_6_B,3,test,R,172,3,620,550,R,1,<rshift>,1,1,539882,277
Control_TS_6_B,3,test,R,173,4,820,550,R,1,<rshift>,1,1,540882,320
Control_TS_6_B,3,test,R,174,2,820,350,P,0,NONE,0,1,541882,950
Control_TS_6_B,3,test,R,175,4,820,550,R,1,<rshift>,1,1,542882,315
Control_TS_6_B,3,test,R,176,3,620,550,R,1,<rshift>,1,1,543884,435
Control_TS_6_B,3,test,R,177,4,820,550,R,1,<rshift>,1,1,544883,351
Control_TS_6_B,3,test,R,178,3,620,550,R,1,<rshift>,1,1,545882,332
Control_TS_6_B,3,test,R,179,2,820,350,R,1,<rshift>,1,1,546883,490
Control_TS_6_B,3,test,R,180,4,820,550,R,1,<rshift>,1,1,547882,369
Control_TS_6_B,3,test,R,181,2,820,350,R,1,<rshift>,1,1,548882,370
Control_TS_6_B,3,test,R,182,4,820,550,R,1,<rshift>,1,1,549882,394
Control_TS_6_B,3,test,R,183,1,620,350,R,1,<rshift>,1,1,550882,378
Control_TS_6_B,3,test,R,184,4,820,550,R,1,<rshift>,1,1,551882,507
Control_TS_6_B,3,test,R,185,2,820,350,R,1,<rshift>,1,1,552884,345
Control_TS_6_B,3,test,R,186,2,820,350,P,0,NONE,0,1,553882,950
Control_TS_6_B,3,test,R,187,4,820,550,R,1,<rshift>,1,1,554882,558
Control_TS_6_B,3,test,R,188,1,620,350,R,1,<rshift>,1,1,555882,464
Control_TS_6_B,3,test,R,189,2,820,350,P,0,NONE,0,1,556882,950
Control_TS_6_B,3,test,R,190,3,620,550,R,1,<rshift>,1,1,557882,369
Control_TS_6_B,3,test,R,191,2,820,350,R,1,<rshift>,1,1,558884,542
Control_TS_6_B,3,test,R,192,3,620,550,P,0,<rshift>,1,0,559882,504
Control_TS_6_B,3,test,R,193,2,820,350,R,1,<rshift>,1,1,560882,346
Control_TS_6_B,3,test,R,194,2,820,350,R,1,<rshift>,1,1,561882,429
Control_TS_6_B,3,test,R,195,4,820,550,R,1,<rshift>,1,1,562882,422
Control_TS_6_B,3,test,R,196,2,820,350,P,0,<rshift>,1,0,563882,310
Control_TS_6_B,3,test,R,197,2,820,350,R,1,<rshift>,1,1,564883,342
Control_TS_6_B,3,test,R,198,1,620,350,P,0,<rshift>,1,0,565882,332
Control_TS_6_B,3,test,R,199,2,820,350,R,1,<rshift>,1,1,566882,374
Control_TS_6_B,3,test,R,200,2,820,350,P,0,NONE,0,1,567883,950
Control_TS_6_B,3,test,R,201,2,820,350,P,0,NONE,0,1,568884,950
Control_TS_6_B,3,test,R,202,2,820,350,P,0,NONE,0,1,569882,950
Control_TS_6_B,3,test,R,203,4,820,550,R,1,<rshift>,1,1,570882,434
Control_TS_6_B,3,test,R,204,2,820,350,P,0,<rshift>,1,0,571883,388
Control_TS_6_B,3,test,R,205,2,820,350,R,1,NONE,0,0,572882,951
Control_TS_6_B,3,test,R,206,4,820,550,R,1,<rshift>,1,1,573882,377
Control_TS_6_B,3,test,R,207,3,620,550,P,0,<rshift>,1,0,574882,319
Control_TS_6_B,3,test,R,208,4,820,550,R,1,<rshift>,1,1,575883,290
Control_TS_6_B,3,test,R,209,1,620,350,R,1,<rshift>,1,1,576883,397
Control_TS_6_B,3,test,R,210,4,820,550,R,1,<rshift>,1,1,577882,361
Control_TS_6_B,3,test,R,211,1,620,350,R,1,<rshift>,1,1,578882,337
Control_TS_6_B,3,test,R,212,1,620,350,R,1,<rshift>,1,1,579882,366
Control_TS_6_B,3,test,R,213,3,620,550,P,0,<rshift>,1,0,580884,333
Control_TS_6_B,3,test,R,214,4,820,550,R,1,<rshift>,1,1,581884,397
Control_TS_6_B,3,test,R,215,4,820,550,R,1,<rshift>,1,1,582882,409
Control_TS_6_B,3,test,R,216,3,620,550,R,1,<rshift>,1,1,583882,508
Control_TS_6_B,3,test,R,217,2,820,350,R,1,<rshift>,1,1,584883,384
Control_TS_6_B,3,test,R,218,3,620,550,P,0,<rshift>,1,0,585882,389
Control_TS_6_B,3,test,R,219,2,820,350,R,1,<rshift>,1,1,586882,436
Control_TS_6_B,3,test,R,220,2,820,350,R,1,<rshift>,1,1,587882,482
Control_TS_6_B,3,test,R,221,1,620,350,R,1,<rshift>,1,1,588882,454
Control_TS_6_B,3,test,R,222,4,820,550,R,1,<rshift>,1,1,589882,517
Control_TS_6_B,3,test,R,223,4,820,550,R,1,<rshift>,1,1,590882,364
Control_TS_6_B,3,test,R,224,2,820,350,R,1,<rshift>,1,1,591884,340
Control_TS_6_B,3,test,R,225,2,820,350,R,1,<rshift>,1,1,592882,352
Control_TS_6_B,3,test,R,226,1,620,350,R,1,<rshift>,1,1,593883,347
Control_TS_6_B,3,test,R,227,2,820,350,R,1,<rshift>,1,1,594882,313
Control_TS_6_B,3,test,R,228,1,620,350,R,1,<rshift>,1,1,595882,329
Control_TS_6_B,3,test,R,229,1,620,350,R,1,<rshift>,1,1,596884,804
Control_TS_6_B,3,test,R,230,1,620,350,R,1,NONE,0,0,597882,950
Control_TS_6_B,3,test,R,231,1,620,350,R,1,<rshift>,1,1,598882,127
Control_TS_6_B,3,test,R,232,2,820,350,R,1,<rshift>,1,1,599882,344
Control_TS_6_B,3,test,R,233,4,820,550,R,1,<rshift>,1,1,600884,355
Control_TS_6_B,3,test,R,234,2,820,350,R,1,<rshift>,1,1,601884,290
Control_TS_6_B,3,test,R,235,4,820,550,P,0,<rshift>,1,0,602884,398
Control_TS_6_B,3,test,R,236,4,820,550,P,0,NONE,0,1,603884,950
Control_TS_6_B,3,test,R,237,3,620,550,R,1,<rshift>,1,1,604884,412
Control_TS_6_B,3,test,R,238,2,820,350,R,1,<rshift>,1,1,605882,356
Control_TS_6_B,3,test,R,239,3,620,550,P,0,<rshift>,1,0,606882,359
Control_TS_6_B,3,test,R,240,3,620,550,R,1,NONE,0,0,607882,950
Control_TS_6_B,3,test,R,241,3,620,550,R,1,<rshift>,1,1,608882,598
Control_TS_6_B,3,test,R,242,1,620,350,P,0,NONE,0,1,609884,950
Control_TS_6_B,3,test,R,243,4,820,550,R,1,<rshift>,1,1,610882,380
Control_TS_6_B,3,test,R,244,4,820,550,R,1,NONE,0,0,611882,950
Control_TS_6_B,3,test,R,245,4,820,550,R,1,<rshift>,1,1,612882,361
Control_TS_6_B,3,test,R,246,4,820,550,R,1,<rshift>,1,1,613884,350
Control_TS_6_B,3,test,R,247,4,820,550,R,1,<rshift>,1,1,614882,128
Control_TS_6_B,3,test,R,248,3,620,550,R,1,<rshift>,1,1,615883,318
Control_TS_6_B,3,test,R,249,1,620,350,R,1,<rshift>,1,1,616882,356
Control_TS_6_B,3,test,R,250,2,820,350,R,1,<rshift>,1,1,617884,178
Control_TS_6_B,3,test,R,251,2,820,350,R,1,<rshift>,1,1,618884,361
Control_TS_6_B,3,test,R,252,2,820,350,R,1,<rshift>,1,1,619882,166
Control_TS_6_B,3,test,R,253,4,820,550,R,1,<rshift>,1,1,620884,322
Control_TS_6_B,3,test,R,254,3,620,550,P,0,<rshift>,1,0,621882,294
Control_TS_6_B,3,test,R,255,4,820,550,R,1,<rshift>,1,1,622882,416
Control_TS_6_B,3,test,R,256,4,820,550,R,1,<rshift>,1,1,623882,421
Control_TS_6_B,3,test,R,257,2,820,350,R,1,<rshift>,1,1,624882,510
Control_TS_6_B,3,test,R,258,4,820,550,P,0,<rshift>,1,0,625882,453
Control_TS_6_B,3,test,R,259,4,820,550,R,1,<rshift>,1,1,626882,678
Control_TS_6_B,3,test,R,260,4,820,550,R,1,<rshift>,1,1,627882,777
Control_TS_6_B,3,test,R,261,4,820,550,R,1,<rshift>,1,1,628882,788
Control_TS_6_B,3,test,R,262,4,820,550,R,1,<rshift>,1,1,629883,509
Control_TS_6_B,3,test,R,263,2,820,350,R,1,<rshift>,1,1,630882,373
Control_TS_6_B,3,test,R,264,2,820,350,P,0,NONE,0,1,631883,950
Control_TS_6_B,3,test,R,265,2,820,350,P,0,NONE,0,1,632882,950
Control_TS_6_B,3,test,R,266,4,820,550,R,1,<rshift>,1,1,633882,350
Control_TS_6_B,3,test,R,267,4,820,550,R,1,<rshift>,1,1,634884,428
Control_TS_6_B,3,test,R,268,3,620,550,R,1,<rshift>,1,1,635882,450
Control_TS_6_B,3,test,R,269,1,620,350,P,0,<rshift>,1,0,636884,378
Control_TS_6_B,3,test,R,270,3,620,550,R,1,<rshift>,1,1,637882,422
Control_TS_6_B,3,test,R,271,4,820,550,R,1,<rshift>,1,1,638884,334
Control_TS_6_B,3,test,R,272,2,820,350,R,1,<rshift>,1,1,639884,343
Control_TS_6_B,3,test,R,273,2,820,350,R,1,<rshift>,1,1,640882,625
Control_TS_6_B,3,test,R,274,2,820,350,R,1,<rshift>,1,1,641882,355
Control_TS_6_B,3,test,R,275,3,620,550,R,1,<rshift>,1,1,642882,440
Control_TS_6_B,3,test,R,276,3,620,550,R,1,NONE,0,0,643882,950
Control_TS_6_B,3,test,R,277,2,820,350,R,1,<rshift>,1,1,644882,412
Control_TS_6_B,3,test,R,278,4,820,550,R,1,<rshift>,1,1,645882,453
Control_TS_6_B,3,test,R,279,2,820,350,P,0,<rshift>,1,0,646882,300
Control_TS_6_B,3,test,R,280,4,820,550,P,0,NONE,0,1,647883,950
Control_TS_6_B,3,test,R,281,4,820,550,R,1,<rshift>,1,1,648883,469
Control_TS_6_B,3,test,R,282,1,620,350,R,1,<rshift>,1,1,649882,419
Control_TS_6_B,3,test,R,283,1,620,350,R,1,<rshift>,1,1,650882,600
Control_TS_6_B,3,test,R,284,1,620,350,R,1,<rshift>,1,1,651882,527
Control_TS_6_B,3,test,R,285,4,820,550,R,1,<rshift>,1,1,652882,214
Control_TS_6_B,3,test,R,286,4,820,550,R,1,<rshift>,1,1,653884,331
Control_TS_6_B,3,test,R,287,3,620,550,R,1,<rshift>,1,1,654884,551
Control_TS_6_B,3,test,R,288,2,820,350,R,1,<rshift>,1,1,655882,312
Control_TS_6_B,3,test,R,289,3,620,550,R,1,<rshift>,1,1,656882,313
Control_TS_6_B,3,test,R,290,3,620,550,R,1,NONE,0,0,657882,950
Control_TS_6_B,3,test,R,291,2,820,350,R,1,<rshift>,1,1,658883,347
Control_TS_6_B,3,test,R,292,3,620,550,R,1,<rshift>,1,1,659884,332
Control_TS_6_B,3,test,R,293,2,820,350,R,1,<rshift>,1,1,660882,289
Control_TS_6_B,3,test,R,294,3,620,550,R,1,<rshift>,1,1,661884,290
Control_TS_6_B,3,test,R,295,4,820,550,R,1,<rshift>,1,1,662883,330
Control_TS_6_B,3,test,R,296,4,820,550,R,1,<rshift>,1,1,663882,309
Control_TS_6_B,3,test,R,297,1,620,350,R,1,<rshift>,1,1,664882,124
Control_TS_6_B,3,test,R,298,2,820,350,R,1,<rshift>,1,1,665884,451
Control_TS_6_B,3,test,R,299,3,620,550,R,1,<rshift>,1,1,666882,504
Control_TS_6_B,3,test,R,300,1,620,350,R,1,<rshift>,1,1,667883,415
