subnum,block,type,correctresponse,trial,choice,x,y,stim,present,response,responded,corr,starttime,rt
Control_TS_5_A,0,practice,P,1,3,620,550,R,0,NONE,0,1,13454,951
Control_TS_5_A,0,practice,P,2,2,820,350,P,1,<rshift>,1,1,14453,440
Control_TS_5_A,0,practice,P,3,3,620,550,R,0,<rshift>,1,0,15453,388
Control_TS_5_A,0,practice,P,4,4,820,550,P,1,<rshift>,1,1,16861,464
Control_TS_5_A,0,practice,P,5,3,620,550,P,1,<rshift>,1,1,17452,488
Control_TS_5_A,0,practice,P,6,3,620,550,P,1,<rshift>,1,1,18452,412
Control_TS_5_A,0,practice,P,7,2,820,350,P,1,<rshift>,1,1,19453,280
Control_TS_5_A,0,practice,P,8,1,620,350,P,1,<rshift>,1,1,20454,353
Control_TS_5_A,0,practice,P,9,3,620,550,P,1,<rshift>,1,1,21452,316
Control_TS_5_A,0,practice,P,10,2,820,350,P,1,<rshift>,1,1,22454,293
Control_TS_5_A,1,test,P,1,1,620,350,P,1,<rshift>,1,1,28975,516
Control_TS_5_A,1,test,P,2,2,820,350,R,0,<rshift>,1,0,29974,305
Control_TS_5_A,1,test,P,3,2,820,350,P,1,<rshift>,1,1,30976,371
Control_TS_5_A,1,test,P,4,1,620,350,R,0,NONE,0,1,31976,950
Control_TS_5_A,1,test,P,5,3,620,550,P,1,<rshift>,1,1,32975,440
Control_TS_5_A,1,test,P,6,3,620,550,R,0,NONE,0,1,33975,950
Control_TS_5_A,1,test,P,7,3,620,550,P,1,<rshift>,1,1,34975,607
Control_TS_5_A,1,test,P,8,1,620,350,P,1,<rshift>,1,1,35975,449
Control_TS_5_A,1,test,P,9,1,620,350,P,1,<rshift>,1,1,36974,390
Control_TS_5_A,1,test,P,10,2,820,350,P,1,<rshift>,1,1,37974,293
Control_TS_5_A,1,test,P,11,3,620,550,P,1,<rshift>,1,1,38976,435
Control_TS_5_A,1,test,P,12,4,820,550,R,0,<rshift>,1,0,39974,336
Control_TS_5_A,1,test,P,13,3,620,550,P,1,<rshift>,1,1,40974,475
Control_TS_5_A,1,test,P,14,2,820,350,P,1,<rshift>,1,1,41974,476
Control_TS_5_A,1,test,P,15,2,820,350,P,1,<rshift>,1,1,42976,431
Control_TS_5_A,1,test,P,16,4,820,550,P,1,<rshift>,1,1,43976,499
Control_TS_5_A,1,test,P,17,3,620,550,P,1,<rshift>,1,1,44976,440
Control_TS_5_A,1,test,P,18,3,620,550,R,0,<rshift>,1,0,45974,421
Control_TS_5_A,1,test,P,19,1,620,350,P,1,<rshift>,1,1,46974,452
Control_TS_5_A,1,test,P,20,2,820,350,R,0,NONE,0,1,47974,950
Control_TS_5_A,1,test,P,21,4,820,550,R,0,<rshift>,1,0,48974,419
Control_TS_5_A,1,test,P,22,1,620,350,P,1,<rshift>,1,1,49976,505
Control_TS_5_A,1,test,P,23,3,620,550,P,1,<rshift>,1,1,50974,485
Control_TS_5_A,1,test,P,24,2,820,350,P,1,<rshift>,1,1,51975,492
Control_TS_5_A,1,test,P,25,3,620,550,P,1,<rshift>,1,1,52974,531
Control_TS_5_A,1,test,P,26,1,620,350,P,1,<rshift>,1,1,53975,423
Control_TS_5_A,1,test,P,27,1,620,350,P,1,<rshift>,1,1,54974,450
Control_TS_5_A,1,test,P,28,4,820,550,P,1,<rshift>,1,1,55976,436
Control_TS_5_A,1,test,P,29,2,820,350,P,1,<rshift>,1,1,56974,424
Control_TS_5_A,1,test,P,30,4,820,550,R,0,<rshift>,1,0,57975,416
Control_TS_5_A,1,test,P,31,1,620,350,R,0,NONE,0,1,58974,950
Control_TS_5_A,1,test,P,32,3,620,550,P,1,<rshift>,1,1,59974,572
Control_TS_5_A,1,test,P,33,1,620,350,P,1,<rshift>,1,1,60976,406
Control_TS_5_A,1,test,P,34,2,820,350,R,0,NONE,0,1,61974,951
Control_TS_5_A,1,test,P,35,2,820,350,P,1,<rshift>,1,1,62974,475
Control_TS_5_A,1,test,P,36,3,620,550,P,1,<rshift>,1,1,63974,475
Control_TS_5_A,1,test,P,37,1,620,350,P,1,<rshift>,1,1,64974,470
Control_TS_5_A,1,test,P,38,3,620,550,R,0,NONE,0,1,65974,950
Control_TS_5_A,1,test,P,39,4,820,550,P,1,<rshift>,1,1,66974,434
Control_TS_5_A,1,test,P,40,3,620,550,P,1,<rshift>,1,1,67974,564
Control_TS_5_A,1,test,P,41,2,820,350,P,1,<rshift>,1,1,68974,405
Control_TS_5_A,1,test,P,42,2,820,350,R,0,NONE,0,1,69974,950
Control_TS_5_A,1,test,P,43,4,820,550,P,1,<rshift>,1,1,70974,450
Control_TS_5_A,1,test,P,44,3,620,550,R,0,NONE,0,1,71975,950
Control_TS_5_A,1,test,P,45,1,620,350,P,1,<rshift>,1,1,72976,505
Control_TS_5_A,1,test,P,46,1,620,350,P,1,<rshift>,1,1,73976,455
Control_TS_5_A,1,test,P,47,2,820,350,P,1,<rshift>,1,1,74976,366
Control_TS_5_A,1,test,P,48,2,820,350,P,1,<rshift>,1,1,75974,373
Control_TS_5_A,1,test,P,49,2,820,350,P,1,<rshift>,1,1,76974,405
Control_TS_5_A,1,test,P,50,2,820,350,R,0,NONE,0,1,77974,950
Control_TS_5_A,1,test,P,51,3,620,550,P,1,<rshift>,1,1,78974,423
Control_TS_5_A,1,test,P,52,1,620,350,R,0,<rshift>,1,0,79974,439
Control_TS_5_A,1,test,P,53,2,820,350,P,1,<rshift>,1,1,80976,353
Control_TS_5_A,1,test,P,54,4,820,550,P,1,<rshift>,1,1,81974,482
Control_TS_5_A,1,test,P,55,4,820,550,P,1,<rshift>,1,1,82976,540
Control_TS_5_A,1,test,P,56,2,820,350,P,1,<rshift>,1,1,83975,409
Control_TS_5_A,1,test,P,57,3,620,550,P,1,<rshift>,1,1,84974,676
Control_TS_5_A,1,test,P,58,2,820,350,P,1,<rshift>,1,1,85976,495
Control_TS_5_A,1,test,P,59,3,620,550,P,1,<rshift>,1,1,86975,409
Control_TS_5_A,1,test,P,60,1,620,350,P,1,<rshift>,1,1,87976,536
Control_TS_5_A,1,test,P,61,1,620,350,R,0,NONE,0,1,88974,950
Control_TS_5_A,1,test,P,62,2,820,350,P,1,<rshift>,1,1,89975,381
Control_TS_5_A,1,test,P,63,2,820,350,R,0,NONE,0,1,90976,950
Control_TS_5_A,1,test,P,64,4,820,550,P,1,<rshift>,1,1,91975,346
Control_TS_5_A,1,test,P,65,4,820,550,P,1,<rshift>,1,1,92976,407
Control_TS_5_A,1,test,P,66,1,620,350,P,1,<rshift>,1,1,93974,437
Control_TS_5_A,1,test,P,67,1,620,350,R,0,NONE,0,1,94975,950
Control_TS_5_A,1,test,P,68,4,820,550,R,0,<rshift>,1,0,95974,393
Control_TS_5_A,1,test,P,69,3,620,550,P,1,<rshift>,1,1,96976,402
Control_TS_5_A,1,test,P,70,1,620,350,P,1,<rshift>,1,1,97974,471
Control_TS_5_A,1,test,P,71,4,820,550,P,1,<rshift>,1,1,98974,485
Control_TS_5_A,1,test,P,72,2,820,350,P,1,<rshift>,1,1,99974,400
Control_TS_5_A,1,test,P,73,2,820,350,P,1,<rshift>,1,1,100974,346
Control_TS_5_A,1,test,P,74,1,620,350,P,1,<rshift>,1,1,101975,393
Control_TS_5_A,1,test,P,75,4,820,550,P,1,<rshift>,1,1,102974,438
Control_TS_5_A,1,test,P,76,4,820,550,P,1,<rshift>,1,1,103976,439
Control_TS_5_A,1,test,P,77,1,620,350,P,1,<rshift>,1,1,104976,425
Control_TS_5_A,1,test,P,78,1,620,350,P,1,<rshift>,1,1,105976,391
Control_TS_5_A,1,test,P,79,1,620,350,R,0,<rshift>,1,0,106976,340
Control_TS_5_A,1,test,P,80,3,620,550,P,1,<rshift>,1,1,107974,463
Control_TS_5_A,1,test,P,81,4,820,550,P,1,<rshift>,1,1,108974,441
Control_TS_5_A,1,test,P,82,1,620,350,P,1,<rshift>,1,1,109976,694
Control_TS_5_A,1,test,P,83,4,820,550,R,0,NONE,0,1,110974,950
Control_TS_5_A,1,test,P,84,4,820,550,P,1,<rshift>,1,1,111974,559
Control_TS_5_A,1,test,P,85,1,620,350,R,0,NONE,0,1,112974,950
Control_TS_5_A,1,test,P,86,3,620,550,P,1,<rshift>,1,1,113975,413
Control_TS_5_A,1,test,P,87,1,620,350,R,0,NONE,0,1,114975,950
Control_TS_5_A,1,test,P,88,2,820,350,P,1,<rshift>,1,1,115974,294
Control_TS_5_A,1,test,P,89,4,820,550,P,1,<rshift>,1,1,116974,451
Control_TS_5_A,1,test,P,90,4,820,550,P,1,<rshift>,1,1,117975,385
Control_TS_5_A,1,test,P,91,4,820,550,R,0,NONE,0,1,118974,950
Control_TS_5_A,1,test,P,92,3,620,550,P,1,<rshift>,1,1,119974,516
Control_TS_5_A,1,test,P,93,3,620,550,P,1,<rshift>,1,1,120974,669
Control_TS_5_A,1,test,P,94,1,620,350,R,0,NONE,0,1,121974,950
Control_TS_5_A,1,test,P,95,2,820,350,R,0,<rshift>,1,0,122974,325
Control_TS_5_A,1,test,P,96,4,820,550,P,1,<rshift>,1,1,123976,482
Control_TS_5_A,1,test,P,97,2,820,350,P,1,<rshift>,1,1,124974,497
Control_TS_5_A,1,test,P,98,1,620,350,P,1,<rshift>,1,1,125974,520
Control_TS_5_A,1,test,P,99,4,820,550,P,1,<rshift>,1,1,126974,592
Control_TS_5_A,1,test,P,100,1,620,350,R,0,NONE,0,1,127976,950
Control_TS_5_A,1,test,P,101,2,820,350,P,1,<rshift>,1,1,128974,454
Control_TS_5_A,1,test,P,102,2,820,350,P,1,<rshift>,1,1,129974,405
Control_TS_5_A,1,test,P,103,1,620,350,P,1,<rshift>,1,1,130974,462
Control_TS_5_A,1,test,P,104,3,620,550,R,0,NONE,0,1,131974,950
Control_TS_5_A,1,test,P,105,2,820,350,P,1,<rshift>,1,1,132974,356
Control_TS_5_A,1,test,P,106,3,620,550,P,1,<rshift>,1,1,133974,486
Control_TS_5_A,1,test,P,107,4,820,550,P,1,<rshift>,1,1,134974,516
Control_TS_5_A,1,test,P,108,4,820,550,P,1,<rshift>,1,1,135974,708
Control_TS_5_A,1,test,P,109,2,820,350,R,0,NONE,0,1,136976,950
Control_TS_5_A,1,test,P,110,1,620,350,P,1,<rshift>,1,1,137974,380
Control_TS_5_A,1,test,P,111,1,620,350,P,1,<rshift>,1,1,138974,413
Control_TS_5_A,1,test,P,112,1,620,350,P,1,<rshift>,1,1,139974,375
Control_TS_5_A,1,test,P,113,2,820,350,P,1,<rshift>,1,1,140976,345
Control_TS_5_A,1,test,P,114,3,620,550,P,1,<rshift>,1,1,141976,402
Control_TS_5_A,1,test,P,115,1,620,350,P,1,<rshift>,1,1,142974,675
Control_TS_5_A,1,test,P,116,4,820,550,P,1,<rshift>,1,1,143975,401
Control_TS_5_A,1,test,P,117,1,620,350,P,1,<rshift>,1,1,144974,355
Control_TS_5_A,1,test,P,118,2,820,350,R,0,<rshift>,1,0,145974,320
Control_TS_5_A,1,test,P,119,1,620,350,P,1,<rshift>,1,1,146976,461
Control_TS_5_A,1,test,P,120,3,620,550,P,1,<rshift>,1,1,147974,423
Control_TS_5_A,1,test,P,121,3,620,550,R,0,<rshift>,1,0,148976,399
Control_TS_5_A,1,test,P,122,4,820,550,P,1,<rshift>,1,1,149974,375
Control_TS_5_A,1,test,P,123,2,820,350,P,1,<rshift>,1,1,150974,557
Control_TS_5_A,1,test,P,124,4,820,550,P,1,<rshift>,1,1,151974,433
Control_TS_5_A,1,test,P,125,2,820,350,R,0,<rshift>,1,0,152974,467
Control_TS_5_A,1,test,P,126,4,820,550,P,1,<rshift>,1,1,153976,448
Control_TS_5_A,1,test,P,127,3,620,550,P,1,<rshift>,1,1,154976,525
Control_TS_5_A,1,test,P,128,3,620,550,P,1,<rshift>,1,1,155974,480
Control_TS_5_A,1,test,P,129,4,820,550,R,0,NONE,0,1,156976,950
Control_TS_5_A,1,test,P,130,3,620,550,R,0,NONE,0,1,157975,950
Control_TS_5_A,1,test,P,131,1,620,350,P,1,<rshift>,1,1,158974,513
Control_TS_5_A,1,test,P,132,1,620,350,P,1,<rshift>,1,1,159974,583
Control_TS_5_A,1,test,P,133,1,620,350,R,0,<rshift>,1,0,160974,477
Control_TS_5_A,1,test,P,134,3,620,550,P,1,<rshift>,1,1,161975,518
Control_TS_5_A,1,test,P,135,2,820,350,P,1,<rshift>,1,1,162974,459
Control_TS_5_A,1,test,P,136,3,620,550,P,1,<rshift>,1,1,163976,448
Control_TS_5_A,1,test,P,137,3,620,550,P,1,<rshift>,1,1,164976,379
Control_TS_5_A,1,test,P,138,2,820,350,P,1,<rshift>,1,1,165974,347
Control_TS_5_A,1,test,P,139,1,620,350,P,1,<rshift>,1,1,166976,555
Control_TS_5_A,1,test,P,140,1,620,350,P,1,<rshift>,1,1,167975,445
Control_TS_5_A,1,test,P,141,3,620,550,R,0,NONE,0,1,168974,950
Control_TS_5_A,1,test,P,142,2,820,350,P,1,<rshift>,1,1,169974,578
Control_TS_5_A,1,test,P,143,4,820,550,P,1,<rshift>,1,1,170976,537
Control_TS_5_A,1,test,P,144,3,620,550,P,1,<rshift>,1,1,171974,449
Control_TS_5_A,1,test,P,145,1,620,350,P,1,<rshift>,1,1,172975,402
Control_TS_5_A,1,test,P,146,4,820,550,P,1,<rshift>,1,1,173974,444
Control_TS_5_A,1,test,P,147,4,820,550,P,1,<rshift>,1,1,174974,381
Control_TS_5_A,1,test,P,148,2,820,350,P,1,<rshift>,1,1,175976,418
Control_TS_5_A,1,test,P,149,1,620,350,P,1,<rshift>,1,1,176976,404
Control_TS_5_A,1,test,P,150,3,620,550,R,0,NONE,0,1,177974,950
Control_TS_5_A,1,test,P,151,2,820,350,P,1,<rshift>,1,1,178974,350
Control_TS_5_A,1,test,P,152,1,620,350,P,1,<rshift>,1,1,179974,455
Control_TS_5_A,1,test,P,153,1,620,350,P,1,<rshift>,1,1,180976,585
Control_TS_5_A,1,test,P,154,4,820,550,P,1,<rshift>,1,1,181974,425
Control_TS_5_A,1,test,P,155,3,620,550,P,1,<rshift>,1,1,182974,534
Control_TS_5_A,1,test,P,156,1,620,350,P,1,<rshift>,1,1,183974,483
Control_TS_5_A,1,test,P,157,1,620,350,P,1,<rshift>,1,1,184974,435
Control_TS_5_A,1,test,P,158,1,620,350,P,1,<rshift>,1,1,185974,478
Control_TS_5_A,1,test,P,159,1,620,350,P,1,<rshift>,1,1,186976,465
Control_TS_5_A,1,test,P,160,1,620,350,P,1,<rshift>,1,1,187974,454
Control_TS_5_A,1,test,P,161,1,620,350,P,1,<rshift>,1,1,188974,453
Control_TS_5_A,1,test,P,162,3,620,550,P,1,<rshift>,1,1,189974,542
Control_TS_5_A,1,test,P,163,3,620,550,P,1,<rshift>,1,1,190974,517
Control_TS_5_A,1,test,P,164,3,620,550,P,1,<rshift>,1,1,191974,445
Control_TS_5_A,1,test,P,165,2,820,350,P,1,<rshift>,1,1,192976,439
Control_TS_5_A,1,test,P,166,2,820,350,P,1,<rshift>,1,1,193976,395
Control_TS_5_A,1,test,P,167,2,820,350,P,1,<rshift>,1,1,194974,365
Control_TS_5_A,1,test,P,168,1,620,350,P,1,<rshift>,1,1,195976,489
Control_TS_5_A,1,test,P,169,2,820,350,P,1,<rshift>,1,1,196974,419
Control_TS_5_A,1,test,P,170,2,820,350,P,1,<rshift>,1,1,197974,438
Control_TS_5_A,1,test,P,171,3,620,550,R,0,<rshift>,1,0,198974,439
Control_TS_5_A,1,test,P,172,1,620,350,P,1,<rshift>,1,1,199976,700
Control_TS_5_A,1,test,P,173,3,620,550,P,1,<rshift>,1,1,200974,509
Control_TS_5_A,1,test,P,174,4,820,550,P,1,<rshift>,1,1,201974,375
Control_TS_5_A,1,test,P,175,4,820,550,R,0,<rshift>,1,0,202976,378
Control_TS_5_A,1,test,P,176,2,820,350,P,1,<rshift>,1,1,203976,492
Control_TS_5_A,1,test,P,177,3,620,550,P,1,<rshift>,1,1,204974,508
Control_TS_5_A,1,test,P,178,4,820,550,P,1,<rshift>,1,1,205974,474
Control_TS_5_A,1,test,P,179,3,620,550,R,0,NONE,0,1,206974,950
Control_TS_5_A,1,test,P,180,2,820,350,P,1,<rshift>,1,1,207974,443
Control_TS_5_A,1,test,P,181,3,620,550,P,1,<rshift>,1,1,208974,566
Control_TS_5_A,1,test,P,182,3,620,550,P,1,<rshift>,1,1,209974,572
Control_TS_5_A,1,test,P,183,1,620,350,P,1,<rshift>,1,1,210976,363
Control_TS_5_A,1,test,P,184,4,820,550,P,1,<rshift>,1,1,211975,318
Control_TS_5_A,1,test,P,185,1,620,350,P,1,<rshift>,1,1,212974,525
Control_TS_5_A,1,test,P,186,1,620,350,P,1,<rshift>,1,1,213976,397
Control_TS_5_A,1,test,P,187,4,820,550,R,0,NONE,0,1,214976,950
Control_TS_5_A,1,test,P,188,3,620,550,R,0,NONE,0,1,215974,950
Control_TS_5_A,1,test,P,189,1,620,350,P,1,<rshift>,1,1,216974,340
Control_TS_5_A,1,test,P,190,2,820,350,P,1,<rshift>,1,1,217975,298
Control_TS_5_A,1,test,P,191,1,620,350,P,1,<rshift>,1,1,218974,539
Control_TS_5_A,1,test,P,192,3,620,550,P,1,<rshift>,1,1,219976,802
Control_TS_5_A,1,test,P,193,3,620,550,P,1,<rshift>,1,1,220974,486
Control_TS_5_A,1,test,P,194,1,620,350,P,1,<rshift>,1,1,221975,357
Control_TS_5_A,1,test,P,195,1,620,350,P,1,<rshift>,1,1,222974,382
Control_TS_5_A,1,test,P,196,3,620,550,R,0,NONE,0,1,223976,950
Control_TS_5_A,1,test,P,197,1,620,350,P,1,<rshift>,1,1,224974,427
Control_TS_5_A,1,test,P,198,2,820,350,P,1,<rshift>,1,1,225974,400
Control_TS_5_A,1,test,P,199,3,620,550,R,0,NONE,0,1,226974,950
Control_TS_5_A,1,test,P,200,4,820,550,R,0,NONE,0,1,227974,951
Control_TS_5_A,1,test,P,201,4,820,550,P,1,<rshift>,1,1,228974,547
Control_TS_5_A,1,test,P,202,3,620,550,P,1,<rshift>,1,1,229974,474
Control_TS_5_A,1,test,P,203,2,820,350,P,1,<rshift>,1,1,230975,380
Control_TS_5_A,1,test,P,204,1,620,350,P,1,<rshift>,1,1,231975,356
Control_TS_5_A,1,test,P,205,1,620,350,R,0,NONE,0,1,232975,950
Control_TS_5_A,1,test,P,206,1,620,350,R,0,NONE,0,1,233974,950
Control_TS_5_A,1,test,P,207,1,620,350,P,1,<rshift>,1,1,234974,520
Control_TS_5_A,1,test,P,208,2,820,350,P,1,<rshift>,1,1,235976,374
Control_TS_5_A,1,test,P,209,4,820,550,P,1,<rshift>,1,1,236976,546
Control_TS_5_A,1,test,P,210,3,620,550,R,0,<rshift>,1,0,237974,372
Control_TS_5_A,1,test,P,211,3,620,550,P,1,<rshift>,1,1,238976,396
Control_TS_5_A,1,test,P,212,2,820,350,P,1,<rshift>,1,1,239974,343
Control_TS_5_A,1,test,P,213,4,820,550,P,1,<rshift>,1,1,240974,364
Control_TS_5_A,1,test,P,214,4,820,550,P,1,<rshift>,1,1,241974,384
Control_TS_5_A,1,test,P,215,2,820,350,P,1,<rshift>,1,1,242975,404
Control_TS_5_A,1,test,P,216,3,620,550,P,1,<rshift>,1,1,243974,373
Control_TS_5_A,1,test,P,217,1,620,350,R,0,<rshift>,1,0,244974,342
Control_TS_5_A,1,test,P,218,1,620,350,P,1,<rshift>,1,1,245974,621
Control_TS_5_A,1,test,P,219,3,620,550,R,0,NONE,0,1,246974,950
Control_TS_5_A,1,test,P,220,2,820,350,R,0,NONE,0,1,247974,951
Control_TS_5_A,1,test,P,221,4,820,550,P,1,<rshift>,1,1,248976,528
Control_TS_5_A,1,test,P,222,2,820,350,P,1,<rshift>,1,1,249974,521
Control_TS_5_A,1,test,P,223,3,620,550,P,1,<rshift>,1,1,250974,546
Control_TS_5_A,1,test,P,224,1,620,350,P,1,<rshift>,1,1,251976,456
Control_TS_5_A,1,test,P,225,4,820,550,P,1,<rshift>,1,1,252972,450
Control_TS_5_A,1,test,P,226,1,620,350,P,1,<rshift>,1,1,253975,455
Control_TS_5_A,1,test,P,227,4,820,550,P,1,<rshift>,1,1,254974,396
Control_TS_5_A,1,test,P,228,1,620,350,R,0,<rshift>,1,0,255974,362
Control_TS_5_A,1,test,P,229,1,620,350,P,1,<rshift>,1,1,256974,516
Control_TS_5_A,1,test,P,230,4,820,550,P,1,<rshift>,1,1,257974,509
Control_TS_5_A,1,test,P,231,2,820,350,P,1,<rshift>,1,1,258974,456
Control_TS_5_A,1,test,P,232,1,620,350,P,1,<rshift>,1,1,259975,485
Control_TS_5_A,1,test,P,233,3,620,550,P,1,<rshift>,1,1,260974,485
Control_TS_5_A,1,test,P,234,3,620,550,P,1,<rshift>,1,1,261976,473
Control_TS_5_A,1,test,P,235,1,620,350,P,1,<rshift>,1,1,262976,467
Control_TS_5_A,1,test,P,236,1,620,350,P,1,<rshift>,1,1,263974,391
Control_TS_5_A,1,test,P,237,3,620,550,P,1,<rshift>,1,1,264976,522
Control_TS_5_A,1,test,P,238,3,620,550,P,1,<rshift>,1,1,265976,374
Control_TS_5_A,1,test,P,239,3,620,550,P,1,<rshift>,1,1,266974,379
Control_TS_5_A,1,test,P,240,3,620,550,P,1,<rshift>,1,1,267974,304
Control_TS_5_A,1,test,P,241,4,820,550,P,1,<rshift>,1,1,268975,499
Control_TS_5_A,1,test,P,242,2,820,350,P,1,<rshift>,1,1,269973,390
Control_TS_5_A,1,test,P,243,2,820,350,P,1,<rshift>,1,1,270974,313
Control_TS_5_A,1,test,P,244,2,820,350,P,1,<rshift>,1,1,271974,358
Control_TS_5_A,1,test,P,245,1,620,350,P,1,<rshift>,1,1,272975,413
Control_TS_5_A,1,test,P,246,3,620,550,P,1,<rshift>,1,1,273976,341
Control_TS_5_A,1,test,P,247,1,620,350,P,1,<rshift>,1,1,274975,394
Control_TS_5_A,1,test,P,248,1,620,350,R,0,NONE,0,1,275976,950
Control_TS_5_A,1,test,P,249,1,620,350,P,1,<rshift>,1,1,276974,550
Control_TS_5_A,1,test,P,250,3,620,550,P,1,<rshift>,1,1,277974,456
Control_TS_5_A,1,test,P,251,3,620,550,P,1,<rshift>,1,1,278974,418
Control_TS_5_A,1,test,P,252,4,820,550,P,1,<rshift>,1,1,279974,403
Control_TS_5_A,1,test,P,253,1,620,350,R,0,<rshift>,1,0,280974,379
Control_TS_5_A,1,test,P,254,3,620,550,P,1,<rshift>,1,1,281974,429
Control_TS_5_A,1,test,P,255,1,620,350,P,1,<rshift>,1,1,282974,463
Control_TS_5_A,1,test,P,256,3,620,550,P,1,<rshift>,1,1,283974,488
Control_TS_5_A,1,test,P,257,4,820,550,P,1,<rshift>,1,1,284976,445
Control_TS_5_A,1,test,P,258,2,820,350,P,1,<rshift>,1,1,285974,433
Control_TS_5_A,1,test,P,259,4,820,550,R,0,NONE,0,1,286974,950
Control_TS_5_A,1,test,P,260,3,620,550,P,1,<rshift>,1,1,287974,444
Control_TS_5_A,1,test,P,261,4,820,550,P,1,<rshift>,1,1,288974,504
Control_TS_5_A,1,test,P,262,3,620,550,P,1,<rshift>,1,1,289974,433
Control_TS_5_A,1,test,P,263,3,620,550,P,1,<rshift>,1,1,290976,459
Control_TS_5_A,1,test,P,264,3,620,550,P,1,<rshift>,1,1,291974,430
Control_TS_5_A,1,test,P,265,3,620,550,P,1,<rshift>,1,1,292975,368
Control_TS_5_A,1,test,P,266,2,820,350,P,1,<rshift>,1,1,293974,487
Control_TS_5_A,1,test,P,267,2,820,350,P,1,<rshift>,1,1,294976,386
Control_TS_5_A,1,test,P,268,4,820,550,P,1,<rshift>,1,1,295974,506
Control_TS_5_A,1,test,P,269,4,820,550,P,1,<rshift>,1,1,296975,421
Control_TS_5_A,1,test,P,270,2,820,350,P,1,<rshift>,1,1,297975,497
Control_TS_5_A,1,test,P,271,3,620,550,P,1,<rshift>,1,1,298975,429
Control_TS_5_A,1,test,P,272,3,620,550,P,1,<rshift>,1,1,299975,417
Control_TS_5_A,1,test,P,273,1,620,350,P,1,<rshift>,1,1,300974,531
Control_TS_5_A,1,test,P,274,4,820,550,R,0,NONE,0,1,301974,950
Control_TS_5_A,1,test,P,275,1,620,350,P,1,<rshift>,1,1,302974,471
Control_TS_5_A,1,test,P,276,2,820,350,P,1,<rshift>,1,1,303974,436
Control_TS_5_A,1,test,P,277,3,620,550,P,1,<rshift>,1,1,304975,350
Control_TS_5_A,1,test,P,278,1,620,350,R,0,NONE,0,1,305974,950
Control_TS_5_A,1,test,P,279,3,620,550,P,1,<rshift>,1,1,306974,417
Control_TS_5_A,1,test,P,280,4,820,550,P,1,<rshift>,1,1,307974,538
Control_TS_5_A,1,test,P,281,2,820,350,P,1,<rshift>,1,1,308974,402
Control_TS_5_A,1,test,P,282,3,620,550,P,1,<rshift>,1,1,309974,448
Control_TS_5_A,1,test,P,283,1,620,350,P,1,<rshift>,1,1,310974,934
Control_TS_5_A,1,test,P,284,4,820,550,P,1,<rshift>,1,1,311974,406
Control_TS_5_A,1,test,P,285,3,620,550,P,1,<rshift>,1,1,312974,433
Control_TS_5_A,1,test,P,286,1,620,350,P,1,<rshift>,1,1,313976,399
Control_TS_5_A,1,test,P,287,1,620,350,R,0,NONE,0,1,314976,950
Control_TS_5_A,1,test,P,288,2,820,350,P,1,<rshift>,1,1,315974,417
Control_TS_5_A,1,test,P,289,1,620,350,R,0,NONE,0,1,316974,950
Control_TS_5_A,1,test,P,290,4,820,550,P,1,<rshift>,1,1,317974,405
Control_TS_5_A,1,test,P,291,2,820,350,P,1,<rshift>,1,1,318974,455
Control_TS_5_A,1,test,P,292,1,620,350,P,1,<rshift>,1,1,319974,551
Control_TS_5_A,1,test,P,293,1,620,350,P,1,<rshift>,1,1,320974,636
Control_TS_5_A,1,test,P,294,1,620,350,P,1,<rshift>,1,1,321974,474
Control_TS_5_A,1,test,P,295,4,820,550,P,1,<rshift>,1,1,322975,432
Control_TS_5_A,1,test,P,296,4,820,550,P,1,<rshift>,1,1,323976,354
Control_TS_5_A,1,test,P,297,3,620,550,P,1,<rshift>,1,1,324974,380
Control_TS_5_A,1,test,P,298,1,620,350,P,1,<rshift>,1,1,325976,402
Control_TS_5_A,1,test,P,299,4,820,550,P,1,<rshift>,1,1,326974,418
Control_TS_5_A,1,test,P,300,2,820,350,R,0,<rshift>,1,0,327974,481
Control_TS_5_A,2,practice,R,1,1,620,350,R,1,<rshift>,1,1,350634,553
Control_TS_5_A,2,practice,R,2,4,820,550,R,1,<rshift>,1,1,351633,417
Control_TS_5_A,2,practice,R,3,3,620,550,R,1,<rshift>,1,1,352633,429
Control_TS_5_A,2,practice,R,4,2,820,350,P,0,NONE,0,1,353634,950
Control_TS_5_A,2,practice,R,5,4,820,550,R,1,<rshift>,1,1,354635,382
Control_TS_5_A,2,practice,R,6,3,620,550,R,1,<rshift>,1,1,355631,416
Control_TS_5_A,2,practice,R,7,2,820,350,P,0,NONE,0,1,356633,950
Control_TS_5_A,2,practice,R,8,1,620,350,R,1,<rshift>,1,1,357633,388
Control_TS_5_A,2,practice,R,9,1,620,350,R,1,<rshift>,1,1,358633,427
Control_TS_5_A,2,practice,R,10,2,820,350,R,1,<rshift>,1,1,359634,420
Control_TS_5_A,3,test,R,1,2,820,350,R,1,<rshift>,1,1,364306,510
Control_TS_5_A,3,test,R,2,4,820,550,R,1,<rshift>,1,1,365305,391
Control_TS_5_A,3,test,R,3,3,620,550,P,0,NONE,0,1,366306,950
Control_TS_5_A,3,test,R,4,4,820,550,R,1,<rshift>,1,1,367306,441
Control_TS_5_A,3,test,R,5,1,620,350,P,0,NONE,0,1,368305,950
Control_TS_5_A,3,test,R,6,1,620,350,R,1,<rshift>,1,1,369305,497
Control_TS_5_A,3,test,R,7,2,820,350,R,1,<rshift>,1,1,370305,408
Control_TS_5_A,3,test,R,8,1,620,350,R,1,<rshift>,1,1,371306,481
Control_TS_5_A,3,test,R,9,2,820,350,R,1,<rshift>,1,1,372305,400
Control_TS_5_A,3,test,R,10,3,620,550,R,1,<rshift>,1,1,373305,417
Control_TS_5_A,3,test,R,11,4,820,550,R,1,<rshift>,1,1,374305,417
Control_TS_5_A,3,test,R,12,3,620,550,R,1,<rshift>,1,1,375307,394
Control_TS_5_A,3,test,R,13,3,620,550,R,1,<rshift>,1,1,376305,357
Control_TS_5_A,3,test,R,14,2,820,350,R,1,<rshift>,1,1,377306,442
Control_TS_5_A,3,test,R,15,4,820,550,P,0,NONE,0,1,378306,950
Control_TS_5_A,3,test,R,16,1,620,350,R,1,<rshift>,1,1,379307,512
Control_TS_5_A,3,test,R,17,4,820,550,R,1,<rshift>,1,1,380307,568
Control_TS_5_A,3,test,R,18,3,620,550,P,0,<rshift>,1,0,381305,434
Control_TS_5_A,3,test,R,19,4,820,550,R,1,<rshift>,1,1,382305,469
Control_TS_5_A,3,test,R,20,4,820,550,R,1,<rshift>,1,1,383307,367
Control_TS_5_A,3,test,R,21,2,820,350,R,1,<rshift>,1,1,384305,635
Control_TS_5_A,3,test,R,22,4,820,550,R,1,<rshift>,1,1,385305,397
Control_TS_5_A,3,test,R,23,3,620,550,P,0,<rshift>,1,0,386307,349
Control_TS_5_A,3,test,R,24,2,820,350,R,1,<rshift>,1,1,387307,383
Control_TS_5_A,3,test,R,25,2,820,350,P,0,<rshift>,1,0,388305,380
Control_TS_5_A,3,test,R,26,4,820,550,R,1,<rshift>,1,1,389305,541
Control_TS_5_A,3,test,R,27,1,620,350,R,1,<rshift>,1,1,390305,472
Control_TS_5_A,3,test,R,28,1,620,350,R,1,<rshift>,1,1,391307,477
Control_TS_5_A,3,test,R,29,3,620,550,R,1,<rshift>,1,1,392307,680
Control_TS_5_A,3,test,R,30,1,620,350,R,1,<rshift>,1,1,393305,656
Control_TS_5_A,3,test,R,31,3,620,550,R,1,<rshift>,1,1,394305,403
Control_TS_5_A,3,test,R,32,2,820,350,P,0,<rshift>,1,0,395307,328
Control_TS_5_A,3,test,R,33,2,820,350,P,0,NONE,0,1,396305,950
Control_TS_5_A,3,test,R,34,1,620,350,R,1,<rshift>,1,1,397305,454
Control_TS_5_A,3,test,R,35,1,620,350,P,0,<rshift>,1,0,398305,533
Control_TS_5_A,3,test,R,36,2,820,350,R,1,<rshift>,1,1,399306,507
Control_TS_5_A,3,test,R,37,1,620,350,R,1,<rshift>,1,1,400305,506
Control_TS_5_A,3,test,R,38,4,820,550,P,0,NONE,0,1,401306,951
Control_TS_5_A,3,test,R,39,4,820,550,R,1,<rshift>,1,1,402307,452
Control_TS_5_A,3,test,R,40,2,820,350,R,1,<rshift>,1,1,403305,459
Control_TS_5_A,3,test,R,41,1,620,350,R,1,<rshift>,1,1,404307,418
Control_TS_5_A,3,test,R,42,2,820,350,P,0,NONE,0,1,405306,950
Control_TS_5_A,3,test,R,43,3,620,550,R,1,<rshift>,1,1,406305,395
Control_TS_5_A,3,test,R,44,3,620,550,P,0,NONE,0,1,407305,950
Control_TS_5_A,3,test,R,45,4,820,550,R,1,<rshift>,1,1,408305,350
Control_TS_5_A,3,test,R,46,4,820,550,R,1,<rshift>,1,1,409305,406
Control_TS_5_A,3,test,R,47,1,620,350,R,1,<rshift>,1,1,410306,482
Control_TS_5_A,3,test,R,48,3,620,550,R,1,<rshift>,1,1,411305,599
Control_TS_5_A,3,test,R,49,3,620,550,R,1,<rshift>,1,1,412305,386
Control_TS_5_A,3,test,R,50,4,820,550,R,1,<rshift>,1,1,413306,323
Control_TS_5_A,3,test,R,51,2,820,350,R,1,<rshift>,1,1,414305,318
Control_TS_5_A,3,test,R,52,2,820,350,R,1,<rshift>,1,1,415305,350
Control_TS_5_A,3,test,R,53,1,620,350,P,0,NONE,0,1,416307,950
Control_TS_5_A,3,test,R,54,1,620,350,R,1,<rshift>,1,1,417306,408
Control_TS_5_A,3,test,R,55,3,620,550,P,0,<rshift>,1,0,418305,351
Control_TS_5_A,3,test,R,56,3,620,550,R,1,<rshift>,1,1,419305,566
Control_TS_5_A,3,test,R,57,2,820,350,R,1,<rshift>,1,1,420307,396
Control_TS_5_A,3,test,R,58,4,820,550,P,0,<rshift>,1,0,421305,356
Control_TS_5_A,3,test,R,59,2,820,350,R,1,<rshift>,1,1,422307,390
Control_TS_5_A,3,test,R,60,1,620,350,P,0,<rshift>,1,0,423307,459
Control_TS_5_A,3,test,R,61,4,820,550,R,1,<rshift>,1,1,424305,573
Control_TS_5_A,3,test,R,62,3,620,550,R,1,<rshift>,1,1,425305,438
Control_TS_5_A,3,test,R,63,2,820,350,P,0,NONE,0,1,426307,950
Control_TS_5_A,3,test,R,64,1,620,350,R,1,<rshift>,1,1,427305,405
Control_TS_5_A,3,test,R,65,4,820,550,R,1,<rshift>,1,1,428305,334
Control_TS_5_A,3,test,R,66,4,820,550,R,1,<rshift>,1,1,429305,359
Control_TS_5_A,3,test,R,67,2,820,350,R,1,<rshift>,1,1,430305,360
Control_TS_5_A,3,test,R,68,1,620,350,R,1,<rshift>,1,1,431305,354
Control_TS_5_A,3,test,R,69,3,620,550,R,1,<rshift>,1,1,432307,419
Control_TS_5_A,3,test,R,70,4,820,550,P,0,NONE,0,1,433305,950
Control_TS_5_A,3,test,R,71,1,620,350,R,1,<rshift>,1,1,434305,363
Control_TS_5_A,3,test,R,72,2,820,350,R,1,<rshift>,1,1,435305,296
Control_TS_5_A,3,test,R,73,2,820,350,R,1,<rshift>,1,1,436307,363
Control_TS_5_A,3,test,R,74,2,820,350,R,1,<rshift>,1,1,437307,298
Control_TS_5_A,3,test,R,75,1,620,350,R,1,<rshift>,1,1,438305,311
Control_TS_5_A,3,test,R,76,3,620,550,R,1,<rshift>,1,1,439307,517
Control_TS_5_A,3,test,R,77,4,820,550,R,1,<rshift>,1,1,440305,327
Control_TS_5_A,3,test,R,78,2,820,350,P,0,<rshift>,1,0,441305,320
Control_TS_5_A,3,test,R,79,4,820,550,R,1,<rshift>,1,1,442305,629
Control_TS_5_A,3,test,R,80,1,620,350,R,1,<rshift>,1,1,443307,394
Control_TS_5_A,3,test,R,81,2,820,350,R,1,<rshift>,1,1,444306,345
Control_TS_5_A,3,test,R,82,3,620,550,R,1,<rshift>,1,1,445305,448
Control_TS_5_A,3,test,R,83,1,620,350,R,1,<rshift>,1,1,446307,506
Control_TS_5_A,3,test,R,84,3,620,550,P,0,<rshift>,1,0,447305,393
Control_TS_5_A,3,test,R,85,4,820,550,P,0,NONE,0,1,448305,950
Control_TS_5_A,3,test,R,86,4,820,550,R,1,<rshift>,1,1,449305,543
Control_TS_5_A,3,test,R,87,3,620,550,R,1,<rshift>,1,1,450305,420
Control_TS_5_A,3,test,R,88,4,820,550,P,0,NONE,0,1,451307,950
Control_TS_5_A,3,test,R,89,4,820,550,P,0,NONE,0,1,452305,950
Control_TS_5_A,3,test,R,90,3,620,550,R,1,<rshift>,1,1,453305,386
Control_TS_5_A,3,test,R,91,2,820,350,R,1,<rshift>,1,1,454305,467
Control_TS_5_A,3,test,R,92,1,620,350,R,1,<rshift>,1,1,455305,346
Control_TS_5_A,3,test,R,93,2,820,350,R,1,<rshift>,1,1,456305,341
Control_TS_5_A,3,test,R,94,2,820,350,R,1,<rshift>,1,1,457307,408
Control_TS_5_A,3,test,R,95,4,820,550,R,1,<rshift>,1,1,458307,435
Control_TS_5_A,3,test,R,96,1,620,350,R,1,<rshift>,1,1,459305,404
Control_TS_5_A,3,test,R,97,1,620,350,R,1,<rshift>,1,1,460307,390
Control_TS_5_A,3,test,R,98,1,620,350,R,1,<rshift>,1,1,461307,364
Control_TS_5_A,3,test,R,99,4,820,550,R,1,<rshift>,1,1,462305,481
Control_TS_5_A,3,test,R,100,4,820,550,R,1,<rshift>,1,1,463307,409
Control_TS_5_A,3,test,R,101,1,620,350,P,0,<rshift>,1,0,464305,461
Control_TS_5_A,3,test,R,102,3,620,550,R,1,<rshift>,1,1,465307,554
Control_TS_5_A,3,test,R,103,4,820,550,R,1,<rshift>,1,1,466307,352
Control_TS_5_A,3,test,R,104,2,820,350,R,1,<rshift>,1,1,467305,452
Control_TS_5_A,3,test,R,105,4,820,550,P,0,NONE,0,1,468306,950
Control_TS_5_A,3,test,R,106,1,620,350,R,1,<rshift>,1,1,469305,379
Control_TS_5_A,3,test,R,107,3,620,550,R,1,<rshift>,1,1,470307,459
Control_TS_5_A,3,test,R,108,4,820,550,R,1,<rshift>,1,1,471305,495
Control_TS_5_A,3,test,R,109,3,620,550,R,1,<rshift>,1,1,472307,430
Control_TS_5_A,3,test,R,110,1,620,350,R,1,<rshift>,1,1,473307,414
Control_TS_5_A,3,test,R,111,4,820,550,R,1,<rshift>,1,1,474305,330
Control_TS_5_A,3,test,R,112,2,820,350,P,0,<rshift>,1,0,475307,341
Control_TS_5_A,3,test,R,113,4,820,550,R,1,<rshift>,1,1,476307,539
Control_TS_5_A,3,test,R,114,3,620,550,R,1,<rshift>,1,1,477306,411
Control_TS_5_A,3,test,R,115,3,620,550,R,1,<rshift>,1,1,478305,372
Control_TS_5_A,3,test,R,116,2,820,350,P,0,<rshift>,1,0,479305,359
Control_TS_5_A,3,test,R,117,4,820,550,R,1,<rshift>,1,1,480305,404
Control_TS_5_A,3,test,R,118,3,620,550,R,1,<rshift>,1,1,481305,380
Control_TS_5_A,3,test,R,119,4,820,550,R,1,<rshift>,1,1,482307,341
Control_TS_5_A,3,test,R,120,4,820,550,R,1,<rshift>,1,1,483307,410
Control_TS_5_A,3,test,R,121,4,820,550,R,1,<rshift>,1,1,484307,338
Control_TS_5_A,3,test,R,122,4,820,550,R,1,<rshift>,1,1,485307,306
Control_TS_5_A,3,test,R,123,4,820,550,P,0,<rshift>,1,0,486305,377
Control_TS_5_A,3,test,R,124,4,820,550,R,1,<rshift>,1,1,487305,487
Control_TS_5_A,3,test,R,125,2,820,350,P,0,NONE,0,1,488305,950
Control_TS_5_A,3,test,R,126,2,820,350,R,1,<rshift>,1,1,489306,496
Control_TS_5_A,3,test,R,127,4,820,550,R,1,<rshift>,1,1,490305,409
Control_TS_5_A,3,test,R,128,4,820,550,R,1,<rshift>,1,1,491307,370
Control_TS_5_A,3,test,R,129,3,620,550,P,0,NONE,0,1,492305,950
Control_TS_5_A,3,test,R,130,2,820,350,R,1,<rshift>,1,1,493305,402
Control_TS_5_A,3,test,R,131,4,820,550,P,0,NONE,0,1,494305,950
Control_TS_5_A,3,test,R,132,3,620,550,R,1,<rshift>,1,1,495305,409
Control_TS_5_A,3,test,R,133,3,620,550,R,1,<rshift>,1,1,496305,580
Control_TS_5_A,3,test,R,134,2,820,350,R,1,<rshift>,1,1,497305,409
Control_TS_5_A,3,test,R,135,1,620,350,R,1,<rshift>,1,1,498307,396
Control_TS_5_A,3,test,R,136,4,820,550,R,1,<rshift>,1,1,499305,413
Control_TS_5_A,3,test,R,137,2,820,350,R,1,<rshift>,1,1,500305,387
Control_TS_5_A,3,test,R,138,2,820,350,P,0,<rshift>,1,0,501307,355
Control_TS_5_A,3,test,R,139,4,820,550,R,1,<rshift>,1,1,502306,652
Control_TS_5_A,3,test,R,140,3,620,550,R,1,<rshift>,1,1,503305,597
Control_TS_5_A,3,test,R,141,4,820,550,R,1,<rshift>,1,1,504306,381
Control_TS_5_A,3,test,R,142,4,820,550,R,1,<rshift>,1,1,505307,365
Control_TS_5_A,3,test,R,143,3,620,550,R,1,<rshift>,1,1,506305,393
Control_TS_5_A,3,test,R,144,1,620,350,R,1,<rshift>,1,1,507305,386
Control_TS_5_A,3,test,R,145,1,620,350,R,1,<rshift>,1,1,508305,400
Control_TS_5_A,3,test,R,146,2,820,350,R,1,<rshift>,1,1,509305,392
Control_TS_5_A,3,test,R,147,1,620,350,R,1,<rshift>,1,1,510305,422
Control_TS_5_A,3,test,R,148,3,620,550,R,1,<rshift>,1,1,511305,535
Control_TS_5_A,3,test,R,149,1,620,350,P,0,NONE,0,1,512305,950
Control_TS_5_A,3,test,R,150,4,820,550,R,1,<rshift>,1,1,513305,598
Control_TS_5_A,3,test,R,151,4,820,550,R,1,<rshift>,1,1,514307,443
Control_TS_5_A,3,test,R,152,1,620,350,R,1,<rshift>,1,1,515307,387
Control_TS_5_A,3,test,R,153,1,620,350,R,1,<rshift>,1,1,516305,355
Control_TS_5_A,3,test,R,154,3,620,550,R,1,<rshift>,1,1,517305,318
Control_TS_5_A,3,test,R,155,3,620,550,R,1,<rshift>,1,1,518307,415
Control_TS_5_A,3,test,R,156,2,820,350,R,1,<rshift>,1,1,519305,328
Control_TS_5_A,3,test,R,157,4,820,550,R,1,<rshift>,1,1,520305,338
Control_TS_5_A,3,test,R,158,1,620,350,R,1,<rshift>,1,1,521306,367
Control_TS_5_A,3,test,R,159,3,620,550,R,1,<rshift>,1,1,522307,352
Control_TS_5_A,3,test,R,160,4,820,550,R,1,<rshift>,1,1,523307,298
Control_TS_5_A,3,test,R,161,4,820,550,R,1,<rshift>,1,1,524307,322
Control_TS_5_A,3,test,R,162,3,620,550,R,1,<rshift>,1,1,525305,568
Control_TS_5_A,3,test,R,163,2,820,350,R,1,<rshift>,1,1,526307,344
Control_TS_5_A,3,test,R,164,3,620,550,R,1,<rshift>,1,1,527306,304
Control_TS_5_A,3,test,R,165,3,620,550,R,1,<rshift>,1,1,528305,249
Control_TS_5_A,3,test,R,166,4,820,550,R,1,<rshift>,1,1,529307,223
Control_TS_5_A,3,test,R,167,1,620,350,P,0,<rshift>,1,0,530305,212
Control_TS_5_A,3,test,R,168,2,820,350,P,0,NONE,0,1,531307,950
Control_TS_5_A,3,test,R,169,4,820,550,R,1,<rshift>,1,1,532305,395
Control_TS_5_A,3,test,R,170,1,620,350,P,0,NONE,0,1,533305,950
Control_TS_5_A,3,test,R,171,3,620,550,R,1,<rshift>,1,1,534305,421
Control_TS_5_A,3,test,R,172,2,820,350,R,1,<rshift>,1,1,535305,576
Control_TS_5_A,3,test,R,173,4,820,550,P,0,<rshift>,1,0,536305,429
Control_TS_5_A,3,test,R,174,4,820,550,R,1,<rshift>,1,1,537306,525
Control_TS_5_A,3,test,R,175,4,820,550,R,1,<rshift>,1,1,538305,469
Control_TS_5_A,3,test,R,176,2,820,350,R,1,<rshift>,1,1,539307,534
Control_TS_5_A,3,test,R,177,2,820,350,R,1,<rshift>,1,1,540305,372
Control_TS_5_A,3,test,R,178,1,620,350,R,1,<rshift>,1,1,541305,600
Control_TS_5_A,3,test,R,179,3,620,550,R,1,<rshift>,1,1,542305,353
Control_TS_5_A,3,test,R,180,3,620,550,R,1,<rshift>,1,1,543306,344
Control_TS_5_A,3,test,R,181,4,820,550,R,1,<rshift>,1,1,544305,240
Control_TS_5_A,3,test,R,182,1,620,350,R,1,<rshift>,1,1,545305,527
Control_TS_5_A,3,test,R,183,1,620,350,P,0,<rshift>,1,0,546305,448
Control_TS_5_A,3,test,R,184,4,820,550,R,1,<rshift>,1,1,547305,417
Control_TS_5_A,3,test,R,185,4,820,550,R,1,<rshift>,1,1,548305,476
Control_TS_5_A,3,test,R,186,1,620,350,R,1,<rshift>,1,1,549305,593
Control_TS_5_A,3,test,R,187,1,620,350,R,1,<rshift>,1,1,550306,413
Control_TS_5_A,3,test,R,188,4,820,550,R,1,<rshift>,1,1,551305,373
Control_TS_5_A,3,test,R,189,3,620,550,P,0,<rshift>,1,0,552305,324
Control_TS_5_A,3,test,R,190,3,620,550,R,1,<rshift>,1,1,553306,629
Control_TS_5_A,3,test,R,191,4,820,550,P,0,<rshift>,1,0,554305,407
Control_TS_5_A,3,test,R,192,1,620,350,R,1,<rshift>,1,1,555306,571
Control_TS_5_A,3,test,R,193,1,620,350,R,1,<rshift>,1,1,556305,411
Control_TS_5_A,3,test,R,194,4,820,550,R,1,<rshift>,1,1,557306,482
Control_TS_5_A,3,test,R,195,1,620,350,P,0,<rshift>,1,0,558307,518
Control_TS_5_A,3,test,R,196,4,820,550,R,1,<rshift>,1,1,559305,422
Control_TS_5_A,3,test,R,197,4,820,550,R,1,<rshift>,1,1,560305,508
Control_TS_5_A,3,test,R,198,3,620,550,R,1,<rshift>,1,1,561305,527
Control_TS_5_A,3,test,R,199,4,820,550,R,1,<rshift>,1,1,562307,378
Control_TS_5_A,3,test,R,200,2,820,350,R,1,<rshift>,1,1,563305,406
Control_TS_5_A,3,test,R,201,1,620,350,R,1,<rshift>,1,1,564305,567
Control_TS_5_A,3,test,R,202,2,820,350,R,1,<rshift>,1,1,565305,441
Control_TS_5_A,3,test,R,203,4,820,550,P,0,NONE,0,1,566305,950
Control_TS_5_A,3,test,R,204,3,620,550,R,1,<rshift>,1,1,567305,445
Control_TS_5_A,3,test,R,205,1,620,350,P,0,NONE,0,1,568307,950
Control_TS_5_A,3,test,R,206,4,820,550,R,1,<rshift>,1,1,569305,424
Control_TS_5_A,3,test,R,207,3,620,550,P,0,NONE,0,1,570306,950
Control_TS_5_A,3,test,R,208,4,820,550,R,1,<rshift>,1,1,571305,425
Control_TS_5_A,3,test,R,209,4,820,550,P,0,NONE,0,1,572305,950
Control_TS_5_A,3,test,R,210,1,620,350,P,0,NONE,0,1,573305,950
Control_TS_5_A,3,test,R,211,4,820,550,R,1,<rshift>,1,1,574307,465
Control_TS_5_A,3,test,R,212,1,620,350,R,1,<rshift>,1,1,575307,491
Control_TS_5_A,3,test,R,213,3,620,550,R,1,<rshift>,1,1,576307,361
Control_TS_5_A,3,test,R,214,2,820,350,R,1,<rshift>,1,1,577305,378
Control_TS_5_A,3,test,R,215,2,820,350,R,1,<rshift>,1,1,578305,441
Control_TS_5_A,3,test,R,216,4,820,550,P,0,<rshift>,1,0,579305,346
Control_TS_5_A,3,test,R,217,3,620,550,R,1,<rshift>,1,1,580305,488
Control_TS_5_A,3,test,R,218,4,820,550,R,1,<rshift>,1,1,581307,435
Control_TS_5_A,3,test,R,219,2,820,350,R,1,<rshift>,1,1,582305,443
Control_TS_5_A,3,test,R,220,2,820,350,R,1,<rshift>,1,1,583305,453
Control_TS_5_A,3,test,R,221,4,820,550,R,1,<rshift>,1,1,584305,497
Control_TS_5_A,3,test,R,222,2,820,350,R,1,<rshift>,1,1,585307,472
Control_TS_5_A,3,test,R,223,4,820,550,R,1,<rshift>,1,1,586307,334
Control_TS_5_A,3,test,R,224,2,820,350,R,1,<rshift>,1,1,587307,346
Control_TS_5_A,3,test,R,225,4,820,550,R,1,<rshift>,1,1,588305,292
Control_TS_5_A,3,test,R,226,1,620,350,R,1,<rshift>,1,1,589305,462
Control_TS_5_A,3,test,R,227,1,620,350,R,1,<rshift>,1,1,590305,447
Control_TS_5_A,3,test,R,228,4,820,550,R,1,<rshift>,1,1,591305,458
Control_TS_5_A,3,test,R,229,4,820,550,R,1,<rshift>,1,1,592305,568
Control_TS_5_A,3,test,R,230,2,820,350,R,1,<rshift>,1,1,593305,388
Control_TS_5_A,3,test,R,231,3,620,550,P,0,<rshift>,1,0,594306,345
Control_TS_5_A,3,test,R,232,3,620,550,R,1,<rshift>,1,1,595305,597
Control_TS_5_A,3,test,R,233,1,620,350,R,1,<rshift>,1,1,596305,446
Control_TS_5_A,3,test,R,234,3,620,550,P,0,<rshift>,1,0,597305,363
Control_TS_5_A,3,test,R,235,2,820,350,R,1,<rshift>,1,1,598305,414
Control_TS_5_A,3,test,R,236,2,820,350,R,1,NONE,0,0,599305,950
Control_TS_5_A,3,test,R,237,3,620,550,P,0,<rshift>,1,0,600305,421
Control_TS_5_A,3,test,R,238,1,620,350,P,0,NONE,0,1,601305,950
Control_TS_5_A,3,test,R,239,3,620,550,R,1,<rshift>,1,1,602305,514
Control_TS_5_A,3,test,R,240,1,620,350,R,1,<rshift>,1,1,603305,457
Control_TS_5_A,3,test,R,241,4,820,550,R,1,<rshift>,1,1,604305,396
Control_TS_5_A,3,test,R,242,4,820,550,R,1,<rshift>,1,1,605305,453
Control_TS_5_A,3,test,R,243,4,820,550,R,1,<rshift>,1,1,606305,343
Control_TS_5_A,3,test,R,244,2,820,350,R,1,<rshift>,1,1,607305,398
Control_TS_5_A,3,test,R,245,3,620,550,R,1,<rshift>,1,1,608305,486
Control_TS_5_A,3,test,R,246,3,620,550,R,1,<rshift>,1,1,609307,409
Control_TS_5_A,3,test,R,247,1,620,350,P,0,NONE,0,1,610305,950
Control_TS_5_A,3,test,R,248,1,620,350,P,0,NONE,0,1,611305,950
Control_TS_5_A,3,test,R,249,3,620,550,P,0,NONE,0,1,612305,950
Control_TS_5_A,3,test,R,250,4,820,550,R,1,<rshift>,1,1,613305,484
Control_TS_5_A,3,test,R,251,3,620,550,R,1,<rshift>,1,1,614307,491
Control_TS_5_A,3,test,R,252,4,820,550,R,1,<rshift>,1,1,615305,405
Control_TS_5_A,3,test,R,253,1,620,350,R,1,<rshift>,1,1,616305,452
Control_TS_5_A,3,test,R,254,2,820,350,R,1,<rshift>,1,1,617307,404
Control_TS_5_A,3,test,R,255,3,620,550,P,0,<rshift>,1,0,618305,336
Control_TS_5_A,3,test,R,256,3,620,550,R,1,<rshift>,1,1,619305,480
Control_TS_5_A,3,test,R,257,3,620,550,R,1,<rshift>,1,1,620305,438
Control_TS_5_A,3,test,R,258,1,620,350,R,1,<rshift>,1,1,621306,445
Control_TS_5_A,3,test,R,259,1,620,350,P,0,NONE,0,1,622306,950
Control_TS_5_A,3,test,R,260,1,620,350,R,1,<rshift>,1,1,623305,507
Control_TS_5_A,3,test,R,261,4,820,550,R,1,<rshift>,1,1,624305,363
Control_TS_5_A,3,test,R,262,1,620,350,R,1,<rshift>,1,1,625305,349
Control_TS_5_A,3,test,R,263,4,820,550,R,1,<rshift>,1,1,626305,324
Control_TS_5_A,3,test,R,264,2,820,350,R,1,<rshift>,1,1,627305,358
Control_TS_5_A,3,test,R,265,4,820,550,P,0,<rshift>,1,0,628305,377
Control_TS_5_A,3,test,R,266,4,820,550,R,1,<rshift>,1,1,629305,513
Control_TS_5_A,3,test,R,267,2,820,350,R,1,<rshift>,1,1,630305,517
Control_TS_5_A,3,test,R,268,1,620,350,R,1,<rshift>,1,1,631307,323
Control_TS_5_A,3,test,R,269,2,820,350,R,1,<rshift>,1,1,632305,488
Control_TS_5_A,3,test,R,270,3,620,550,R,1,<rshift>,1,1,633307,327
Control_TS_5_A,3,test,R,271,3,620,550,R,1,<rshift>,1,1,634305,373
Control_TS_5_A,3,test,R,272,1,620,350,R,1,<rshift>,1,1,635305,436
Control_TS_5_A,3,test,R,273,3,620,550,R,1,<rshift>,1,1,636305,338
Control_TS_5_A,3,test,R,274,3,620,550,R,1,<rshift>,1,1,637306,445
Control_TS_5_A,3,test,R,275,1,620,350,P,0,<rshift>,1,0,638305,381
Control_TS_5_A,3,test,R,276,2,820,350,R,1,<rshift>,1,1,639305,321
Control_TS_5_A,3,test,R,277,3,620,550,R,1,<rshift>,1,1,640307,369
Control_TS_5_A,3,test,R,278,3,620,550,R,1,<rshift>,1,1,641307,612
Control_TS_5_A,3,test,R,279,1,620,350,R,1,<rshift>,1,1,642305,469
Control_TS_5_A,3,test,R,280,3,620,550,R,1,<rshift>,1,1,643306,629
Control_TS_5_A,3,test,R,281,3,620,550,R,1,<rshift>,1,1,644305,477
Control_TS_5_A,3,test,R,282,4,820,550,R,1,<rshift>,1,1,645305,345
Control_TS_5_A,3,test,R,283,4,820,550,R,1,<rshift>,1,1,646305,351
Control_TS_5_A,3,test,R,284,4,820,550,R,1,<rshift>,1,1,647307,303
Control_TS_5_A,3,test,R,285,2,820,350,R,1,<rshift>,1,1,648307,498
Control_TS_5_A,3,test,R,286,2,820,350,R,1,<rshift>,1,1,649305,392
Control_TS_5_A,3,test,R,287,4,820,550,R,1,<rshift>,1,1,650307,388
Control_TS_5_A,3,test,R,288,4,820,550,R,1,<rshift>,1,1,651305,388
Control_TS_5_A,3,test,R,289,3,620,550,R,1,<rshift>,1,1,652307,343
Control_TS_5_A,3,test,R,290,2,820,350,R,1,<rshift>,1,1,653307,277
Control_TS_5_A,3,test,R,291,3,620,550,R,1,<rshift>,1,1,654305,260
Control_TS_5_A,3,test,R,292,1,620,350,R,1,<rshift>,1,1,655305,311
Control_TS_5_A,3,test,R,293,1,620,350,P,0,<rshift>,1,0,656305,416
Control_TS_5_A,3,test,R,294,4,820,550,R,1,<rshift>,1,1,657305,462
Control_TS_5_A,3,test,R,295,3,620,550,R,1,<rshift>,1,1,658305,433
Control_TS_5_A,3,test,R,296,4,820,550,R,1,<rshift>,1,1,659307,372
Control_TS_5_A,3,test,R,297,4,820,550,R,1,<rshift>,1,1,660305,329
Control_TS_5_A,3,test,R,298,2,820,350,R,1,<rshift>,1,1,661305,376
Control_TS_5_A,3,test,R,299,4,820,550,P,0,<rshift>,1,0,662307,432
Control_TS_5_A,3,test,R,300,3,620,550,R,1,<rshift>,1,1,663307,540
